timestamp,timestamp_sample,ref_timestamp,ref_lat,ref_lon,x,y,z,delta_xy[0],delta_xy[1],delta_z,vx,vy,vz,z_deriv,delta_vxy[0],delta_vxy[1],delta_vz,ax,ay,az,heading,delta_heading,ref_alt,dist_bottom,eph,epv,evh,evv,vxy_max,vz_max,hagl_min,hagl_max,xy_valid,z_valid,v_xy_valid,v_z_valid,xy_reset_counter,z_reset_counter,vxy_reset_counter,vz_reset_counter,heading_reset_counter,heading_good_for_control,xy_global,z_global,dist_bottom_valid,dist_bottom_sensor_bitfield
539792027,539791676,45936231,42.3585499,-71.08724959999999,3.5228918,-2.965403,5.3970246,47.302635,102.79922,-0.00024282932,0.058195144,0.024354327,0.022658233,0.01165232,10.28581,20.871662,-1.5133445,0.022864392,0.030949913,3.0305093e-05,3.0521445,0.01443576,5.8792663,0.101756096,0.6252761,0.46207702,0.20629792,0.12834045,inf,inf,inf,inf,1,1,1,1,16,85,16,100,4,0,1,1,1,0
540299768,540299361,45936231,42.3585499,-71.08724959999999,3.552547,-2.9891098,5.4031477,47.302635,102.79922,-0.00024282932,0.05482375,0.020854028,0.019822914,0.010648914,10.28581,20.871662,-1.5133445,0.027898334,-0.0076775756,-0.09926137,3.0509033,0.01443576,5.8792663,0.1,0.62724775,0.45826697,0.20153363,0.12687649,inf,inf,inf,inf,1,1,1,1,16,85,16,100,4,0,1,1,1,0
540797441,540797091,45936231,42.3585499,-71.08724959999999,3.5839825,-3.036883,5.3952594,47.302635,102.79922,-0.00024282932,0.053979445,0.006509682,0.014834551,-0.0014610105,10.28581,20.871662,-1.5133445,0.007396409,-0.036685307,0.050821345,3.049536,0.01443576,5.8792663,0.1,0.59326404,0.44903994,0.18027414,0.12171905,inf,inf,inf,inf,1,1,1,1,16,85,16,100,4,0,1,1,1,0
541295170,541294822,45936231,42.3585499,-71.08724959999999,3.5896833,-3.1122682,5.3788977,47.302635,102.79922,-0.00024282932,0.03838769,-0.017576983,0.010910962,-0.018268581,10.28581,20.871662,-1.5133445,0.0007171239,-0.03666002,-0.072931595,3.0481904,0.01443576,5.8792663,0.1,0.59650475,0.44903797,0.18191856,0.12177541,inf,inf,inf,inf,1,1,1,1,16,85,16,100,4,0,1,1,1,0
541793004,541792552,45936231,42.3585499,-71.08724959999999,3.601157,-3.1761518,5.3564997,47.302635,102.79922,-0.00024282932,0.02775583,-0.032400176,0.012697469,-0.025639078,10.28581,20.871662,-1.5133445,0.0020907088,-0.0045805303,0.048602793,3.047386,0.01443576,5.8792663,0.1,0.5828064,0.44761735,0.17950481,0.12112445,inf,inf,inf,inf,1,1,1,1,16,85,16,100,4,0,1,1,1,0
542290688,542290282,45936231,42.3585499,-71.08724959999999,3.619428,-3.2250779,5.3391294,47.302635,102.79922,-0.00024282932,0.026557185,-0.040454406,0.007242428,-0.034362953,10.28581,20.871662,-1.5133445,0.027729884,0.0036177416,-0.08655931,3.0469947,0.01443576,5.8792663,0.1,0.59526104,0.4481387,0.18885128,0.12286991,inf,inf,inf,inf,1,1,1,1,16,85,16,100,4,0,1,1,1,0
542798352,542797967,45936231,42.3585499,-71.08724959999999,3.6359813,-3.3121026,5.3047967,47.302635,102.79922,-0.00024282932,0.019075487,-0.06486982,-0.00073457765,-0.05120801,10.28581,20.871662,-1.5133445,0.024791012,-0.05172326,-0.092812285,3.0464945,0.01443576,5.8792663,0.1,0.584362,0.4484466,0.18624593,0.122583486,inf,inf,inf,inf,1,1,1,1,16,85,16,100,4,0,1,1,1,0
543296039,543295698,45936231,42.3585499,-71.08724959999999,3.6490476,-3.3560083,5.2756376,47.302635,102.79922,-0.00024282932,0.015615687,-0.06789755,-0.018074824,-0.06509824,10.28581,20.871662,-1.5133445,0.016399391,0.007743533,-0.062255476,3.0459049,0.01443576,5.8792663,0.10570383,0.593476,0.45092654,0.1911343,0.123736374,inf,inf,inf,inf,1,1,1,1,16,85,16,100,4,0,1,1,1,0
543793782,543793429,45936231,42.3585499,-71.08724959999999,3.652998,-3.3699653,5.2552443,47.302635,102.79922,-0.00024282932,0.010908649,-0.05804154,-0.018645408,-0.054673325,10.28581,20.871662,-1.5133445,-0.024228996,-0.006501681,0.050603908,3.0454967,0.01443576,5.8792663,0.1086154,0.5787022,0.44910717,0.18478946,0.1225067,inf,inf,inf,inf,1,1,1,1,16,85,16,100,4,0,1,1,1,0
544301491,544301114,45936231,42.3585499,-71.08724959999999,3.686825,-3.3756466,5.2395496,47.302635,102.79922,-0.00024282932,0.016881779,-0.044315338,-0.009141187,-0.03809538,10.28581,20.871662,-1.5133445,-0.022979023,-0.0057096104,0.019228555,3.0451572,0.01443576,5.8792663,0.1,0.5905782,0.4493794,0.1913519,0.123666026,inf,inf,inf,inf,1,1,1,1,16,85,16,100,4,0,1,1,1,0
544789237,544788889,45936231,42.3585499,-71.08724959999999,3.7085414,-3.367023,5.2328734,47.302635,102.79922,-0.00024282932,0.025365952,-0.028642992,-0.00931073,-0.0295145,10.28581,20.871662,-1.5133445,0.012288937,0.006868907,-0.05040745,3.0449855,0.01443576,5.8792663,0.10596371,0.5781381,0.44816634,0.18764777,0.1230258,inf,inf,inf,inf,1,1,1,1,16,85,16,100,4,0,1,1,1,0
545296922,545296575,45936231,42.3585499,-71.08724959999999,3.7449646,-3.373327,5.2224355,47.302635,102.79922,-0.00024282932,0.037197743,-0.023796963,-0.0069576385,-0.026547797,10.28581,20.871662,-1.5133445,0.0066885077,-0.07441136,-0.047120973,3.0446746,0.01443576,5.8792663,0.1,0.5964287,0.4543608,0.19812988,0.12567139,inf,inf,inf,inf,1,1,1,1,16,85,16,100,4,0,1,1,1,0
545794651,545794305,45936231,42.3585499,-71.08724959999999,3.7312303,-3.3926497,5.21966,47.302635,102.79922,-0.00024282932,0.02584339,-0.024801161,-0.0071542305,-0.019185215,10.28581,20.871662,-1.5133445,0.0031063783,0.11224607,0.14103295,3.0444484,0.01443576,5.8792663,0.10177708,0.5899016,0.45570678,0.19712253,0.12589772,inf,inf,inf,inf,1,1,1,1,16,85,16,100,4,0,1,1,1,0
546292440,546292036,45936231,42.3585499,-71.08724959999999,3.7400284,-3.404225,5.199867,47.302635,102.79922,-0.00024282932,0.029466461,-0.019081997,-0.01477507,-0.03476564,10.28581,20.871662,-1.5133445,-0.013353616,0.015857486,-0.07094782,3.0439944,0.01443576,5.8792663,0.1,0.60317916,0.4551245,0.20164387,0.12647347,inf,inf,inf,inf,1,1,1,1,16,85,16,100,4,0,1,1,1,0
546800145,546799722,45936231,42.3585499,-71.08724959999999,3.752421,-3.3875623,5.1920977,47.302635,102.79922,-0.00024282932,0.03149443,-0.007380396,-0.012764899,-0.02682016,10.28581,20.871662,-1.5133445,0.014176431,0.012102009,0.035631794,3.0433993,0.01443576,5.8792663,0.10783291,0.5994645,0.45796308,0.20120338,0.12699959,inf,inf,inf,inf,1,1,1,1,16,85,16,100,4,0,1,1,1,0
547297824,547297452,45936231,42.3585499,-71.08724959999999,3.7948298,-3.3496819,5.198015,47.302635,102.79922,-0.00024282932,0.04296592,0.015138167,0.0040417938,0.0026297986,10.28581,20.871662,-1.5133445,-2.5968973e-05,0.03624339,0.0055954116,3.0430849,0.01443576,5.8792663,0.10791254,0.6165826,0.4622646,0.20774831,0.1285178,inf,inf,inf,inf,1,1,1,1,16,85,16,100,4,0,1,1,1,0
547795587,547795183,45936231,42.3585499,-71.08724959999999,3.8225296,-3.3143563,5.2015905,47.302635,102.79922,-0.00024282932,0.04722673,0.0328689,0.00507704,0.005496156,10.28581,20.871662,-1.5133445,-0.002790495,0.008221444,0.15076123,3.0427687,0.01443576,5.8792663,0.1026454,0.6080938,0.4589679,0.20373452,0.1275529,inf,inf,inf,inf,1,1,1,1,16,85,16,100,4,0,1,1,1,0
548293312,548292914,45936231,42.3585499,-71.08724959999999,3.8514547,-3.303086,5.211585,47.302635,102.79922,-0.00024282932,0.04872784,0.036268447,0.011110826,0.016609797,10.28581,20.871662,-1.5133445,-0.011583402,0.020657225,0.05947477,3.0423298,0.01443576,5.8792663,0.1020484,0.61934197,0.4610887,0.20559034,0.12794651,inf,inf,inf,inf,1,1,1,1,16,85,16,100,4,0,1,1,1,0
548791004,548790645,45936231,42.3585499,-71.08724959999999,3.926853,-3.2576118,5.231219,47.302635,102.79922,-0.00024282932,0.07135705,0.05053728,0.01835905,0.028778914,10.28581,20.871662,-1.5133445,-0.0011041064,0.0016688032,-0.0017541216,3.0420845,0.01443576,5.8792663,0.1,0.6135535,0.46248037,0.203863,0.12797654,inf,inf,inf,inf,1,1,1,1,16,85,16,100,4,0,1,1,1,0
549298694,549298331,45936231,42.3585499,-71.08724959999999,3.9478903,-3.23017,5.246391,47.302635,102.79922,-0.00024282932,0.06472981,0.058037724,0.020627482,0.028584491,10.28581,20.871662,-1.5133445,0.018593617,0.019808663,-0.005170675,3.0418532,0.01443576,5.8792663,0.1,0.63297814,0.4674664,0.21099827,0.12954003,inf,inf,inf,inf,1,1,1,1,16,85,16,100,4,0,1,1,1,0
549796432,549796062,45936231,42.3585499,-71.08724959999999,3.9564872,-3.2300296,5.259463,47.302635,102.79922,-0.00024282932,0.05238503,0.054217044,0.028638974,0.03196444,10.28581,20.871662,-1.5133445,0.0033389286,0.008906329,0.008556323,3.0411463,0.01443576,5.8792663,0.1,0.61271214,0.4600798,0.19869038,0.12661137,inf,inf,inf,inf,1,1,1,1,16,85,16,100,4,0,1,1,1,0
550294261,550293793,45936231,42.3585499,-71.08724959999999,4.011609,-3.2501812,5.256306,47.302635,102.79922,-0.00024282932,0.06354292,0.040364005,0.02514272,0.013488745,10.28581,20.871662,-1.5133445,-0.012605505,0.00021681632,0.0030789506,3.0403814,0.01443576,5.8792663,0.1,0.6212779,0.46117967,0.20015185,0.1267403,inf,inf,inf,inf,1,1,1,1,16,85,16,100,4,0,1,1,1,0
550791893,550791524,45936231,42.3585499,-71.08724959999999,4.0219398,-3.2405808,5.2515907,47.302635,102.79922,-0.00024282932,0.0497734,0.042368,0.034800496,0.012207167,10.28581,20.871662,-1.5133445,0.014018237,0.015303053,0.029750293,3.0395389,0.01443576,5.8792663,0.1,0.6011012,0.45732197,0.18947573,0.124407224,inf,inf,inf,inf,1,1,1,1,16,85,16,100,4,0,1,1,1,0
551299668,551299210,45936231,42.3585499,-71.08724959999999,4.0295806,-3.2449868,5.232698,47.302635,102.79922,-0.00024282932,0.045907706,0.03705615,0.02666424,-0.01374013,10.28581,20.871662,-1.5133445,0.013996315,0.041205022,-0.022744339,3.0385084,0.01443576,5.8792663,0.1,0.6087758,0.45882612,0.19217314,0.12482326,inf,inf,inf,inf,1,1,1,1,16,85,16,100,4,0,1,1,1,0
551797390,551796941,45936231,42.3585499,-71.08724959999999,4.051012,-3.2589564,5.211424,47.302635,102.79922,-0.00024282932,0.04499178,0.028716875,0.02101003,-0.027909227,10.28581,20.871662,-1.5133445,-0.0015875819,-0.0120311305,0.04385954,3.0377882,0.01443576,5.8792663,0.1,0.591863,0.45209414,0.18550694,0.122728504,inf,inf,inf,inf,1,1,1,1,16,85,16,100,4,0,1,1,1,0
552295024,552294672,45936231,42.3585499,-71.08724959999999,4.0984282,-3.2729092,5.1973996,47.302635,102.79922,-0.00024282932,0.04993802,0.023816673,0.017676285,-0.03114727,10.28581,20.871662,-1.5133445,-0.008835787,0.028193548,0.0115108155,3.0375028,0.01443576,5.8792663,0.1,0.6022795,0.454431,0.19151029,0.12397365,inf,inf,inf,inf,1,1,1,1,16,85,16,100,4,0,1,1,1,0
552792812,552792404,45936231,42.3585499,-71.08724959999999,4.109819,-3.2856433,5.1830626,47.302635,102.79922,-0.00024282932,0.041004494,0.020019783,0.018586762,-0.028779317,10.28581,20.871662,-1.5133445,-0.0043201926,0.002456093,-0.016225312,3.0370183,0.01443576,5.8792663,0.1,0.5822424,0.4500808,0.18173628,0.12166801,inf,inf,inf,inf,1,1,1,1,16,85,16,100,4,0,1,1,1,0
553300482,553300090,45936231,42.3585499,-71.08724959999999,4.128062,-3.3082469,5.187407,47.302635,102.79922,-0.00024282932,0.03736059,0.014119611,0.026997708,-0.0070677325,10.28581,20.871662,-1.5133445,0.00043582264,-0.0138948,-0.040156823,3.0364113,0.01443576,5.8792663,0.10197163,0.5873968,0.45095134,0.18394077,0.12205247,inf,inf,inf,inf,1,1,1,1,16,85,16,100,4,0,1,1,1,0
553798203,553797821,45936231,42.3585499,-71.08724959999999,4.166183,-3.3614874,5.2040615,47.302635,102.79922,-0.00024282932,0.04683535,-0.006143989,0.032755073,0.014016721,10.28581,20.871662,-1.5133445,-0.014873202,0.03418855,-0.032795213,3.035934,0.01443576,5.8792663,0.1,0.5684025,0.44300598,0.17636837,0.119559474,inf,inf,inf,inf,1,1,1,1,16,85,16,100,4,0,1,1,1,0
554295898,554295553,45936231,42.3585499,-71.08724959999999,4.1645017,-3.3949726,5.198809,47.302635,102.79922,-0.00024282932,0.03640239,-0.01444097,0.028760925,0.001206784,10.28581,20.871662,-1.5133445,0.020505728,-0.008033621,0.04536246,3.0353856,0.01443576,5.8792663,0.1,0.5751245,0.44448757,0.18122418,0.12065343,inf,inf,inf,inf,1,1,1,1,16,85,16,100,4,0,1,1,1,0
554793687,554793284,45936231,42.3585499,-71.08724959999999,4.150276,-3.4071279,5.1856804,47.302635,102.79922,-0.00024282932,0.019039437,-0.013886609,0.034425095,-0.00406282,10.28581,20.871662,-1.5133445,0.006036262,-0.008841238,-0.051612537,3.0348606,0.01443576,5.8792663,0.1,0.5636146,0.44371352,0.1793969,0.12040727,inf,inf,inf,inf,1,1,1,1,16,85,16,100,4,0,1,1,1,0
555291360,555291016,45936231,42.3585499,-71.08724959999999,4.0954084,-3.3433497,5.168224,47.302635,102.79922,-0.00024282932,-0.0018302499,0.020154903,0.025935993,-0.020987138,10.28581,20.871662,-1.5133445,-0.00610061,0.024297634,-0.09808024,3.0343852,0.01443576,5.8792663,0.1,0.5727891,0.44643906,0.18539943,0.12196072,inf,inf,inf,inf,1,1,1,1,16,85,16,100,4,0,1,1,1,0
555799076,555798705,45936231,42.3585499,-71.08724959999999,4.061851,-3.3366623,5.148596,47.302635,102.79922,-0.00024282932,-0.017789615,0.019440325,0.02794053,-0.025625007,10.28581,20.871662,-1.5133445,-0.018392181,0.013912044,0.020534368,3.0339305,0.01443576,5.8792663,0.1,0.5521715,0.43819317,0.17357647,0.11867035,inf,inf,inf,inf,1,1,1,1,16,85,16,100,4,0,1,1,1,0
556296839,556296434,45936231,42.3585499,-71.08724959999999,4.0439014,-3.3171084,5.127109,47.302635,102.79922,-0.00024282932,-0.025379939,0.026705148,0.021158999,-0.03511866,10.28581,20.871662,-1.5133445,0.0057775388,0.022072615,0.070189565,3.033315,0.01443576,5.8792663,0.1,0.5637775,0.44235015,0.18280406,0.12109657,inf,inf,inf,inf,1,1,1,1,16,85,16,100,4,0,1,1,1,0
556794527,556794166,45936231,42.3585499,-71.08724959999999,4.067081,-3.3159423,5.1154714,47.302635,102.79922,-0.00024282932,-0.010219329,0.027251923,0.013143546,-0.034926012,10.28581,20.871662,-1.5133445,0.025400005,-0.0005033878,0.037511513,3.0330212,0.01443576,5.8792663,0.10373545,0.55058604,0.44088706,0.17819396,0.12022536,inf,inf,inf,inf,1,1,1,1,16,85,16,100,4,0,1,1,1,0
557292247,557291898,45936231,42.3585499,-71.08724959999999,4.0957036,-3.3144405,5.0961843,47.302635,102.79922,-0.00024282932,0.0027811727,0.025631491,0.0047380226,-0.04344048,10.28581,20.871662,-1.5133445,-0.029329855,0.0051631234,0.045372188,3.0327573,0.01443576,5.8792663,0.10206699,0.56788486,0.4471185,0.19046007,0.12346733,inf,inf,inf,inf,1,1,1,1,16,85,16,100,4,0,1,1,1,0
557799950,557799584,45936231,42.3585499,-71.08724959999999,4.113209,-3.3213959,5.0724845,47.302635,102.79922,-0.00024282932,0.0031496028,0.020746516,0.0053543127,-0.042598445,10.28581,20.871662,-1.5133445,0.011159317,-0.0073221326,-0.0035654944,3.0324314,0.01443576,5.8792663,0.10122442,0.563619,0.44625372,0.19110422,0.12376442,inf,inf,inf,inf,1,1,1,1,16,85,16,100,4,0,1,1,1,0
558297668,558297316,45936231,42.3585499,-71.08724959999999,4.135319,-3.316669,5.06582,47.302635,102.79922,-0.00024282932,0.00422409,0.020865114,0.003910664,-0.030784134,10.28581,20.871662,-1.5133445,0.029249497,-0.01913733,-0.05264023,3.0322208,0.01443576,5.8792663,0.11096287,0.5780342,0.45049942,0.19726095,0.1254436,inf,inf,inf,inf,1,1,1,1,16,85,16,100,4,0,1,1,1,0
558795410,558795048,45936231,42.3585499,-71.08724959999999,4.168292,-3.2974293,5.073437,47.302635,102.79922,-0.00024282932,0.013806997,0.025884485,0.00938004,-0.010930665,10.28581,20.871662,-1.5133445,0.00023444013,0.007408273,-0.055539172,3.03219,0.01443576,5.8792663,0.103217125,0.5660174,0.45000884,0.1910254,0.12452945,inf,inf,inf,inf,1,1,1,1,16,85,16,100,4,0,1,1,1,0
559293126,559292780,45936231,42.3585499,-71.08724959999999,4.1808205,-3.3391738,5.064369,47.302635,102.79922,-0.00024282932,0.016070155,0.0022388618,0.0059520137,-0.017823026,10.28581,20.871662,-1.5133445,-0.012312637,-0.0286371,0.03699354,3.0319083,0.01443576,5.8792663,0.1,0.57699364,0.45293248,0.19452053,0.12544724,inf,inf,inf,inf,1,1,1,1,16,85,16,100,4,0,1,1,1,0
559791016,559790512,45936231,42.3585499,-71.08724959999999,4.1876373,-3.345698,5.062659,47.302635,102.79922,-0.00024282932,0.01543125,-0.00062452926,0.0045726122,-0.012267446,10.28581,20.871662,-1.5133445,-0.033880483,-0.015445152,0.14280091,3.03146,0.01443576,5.8792663,0.10976839,0.56525326,0.44862464,0.18911357,0.12400924,inf,inf,inf,inf,1,1,1,1,16,85,16,100,4,0,1,1,1,0
560298568,560298199,45936231,42.3585499,-71.08724959999999,4.197543,-3.3294716,5.0759506,47.302635,102.79922,-0.00024282932,0.0169848,0.004911454,0.011260023,0.00794827,10.28581,20.871662,-1.5133445,-0.0031423285,-0.01844222,0.061683595,3.0312746,0.01443576,5.8792663,0.100979805,0.5793436,0.45297256,0.19493777,0.1254668,inf,inf,inf,inf,1,1,1,1,16,85,16,100,4,0,1,1,1,0
560796294,560795931,45936231,42.3585499,-71.08724959999999,4.218525,-3.3306246,5.078469,47.302635,102.79922,-0.00024282932,0.028424507,0.00090771343,0.0032253577,-0.0027619805,10.28581,20.871662,-1.5133445,0.013579998,0.011860641,0.030747296,3.0308886,0.01443576,5.8792663,0.10052109,0.57029843,0.45330784,0.19156049,0.12502992,inf,inf,inf,inf,1,1,1,1,16,85,16,100,4,0,1,1,1,0
561294057,561293663,45936231,42.3585499,-71.08724959999999,4.2374597,-3.3244662,5.081979,47.302635,102.79922,-0.00024282932,0.035855655,-0.0025559855,0.010652063,0.0052163154,10.28581,20.871662,-1.5133445,0.0029321802,-0.025421586,0.06001294,3.0305262,0.01443576,5.8792663,0.100803375,0.5845758,0.45703197,0.19732665,0.12636681,inf,inf,inf,inf,1,1,1,1,16,85,16,100,4,0,1,1,1,0
561801694,561801350,45936231,42.3585499,-71.08724959999999,4.214828,-3.3246045,5.0902658,47.302635,102.79922,-0.00024282932,0.026822422,-0.0064269598,0.010323857,0.008462847,10.28581,20.871662,-1.5133445,-0.008552124,-0.011620674,0.07246875,3.0302215,0.01443576,5.8792663,0.11135054,0.5749039,0.45371243,0.19252625,0.12515369,inf,inf,inf,inf,1,1,1,1,16,85,16,100,4,0,1,1,1,0
562289479,562289128,45936231,42.3585499,-71.08724959999999,4.194687,-3.2928908,5.111762,47.302635,102.79922,-0.00024282932,0.020740785,0.0037580694,0.031867776,0.03598788,10.28581,20.871662,-1.5133445,-0.026412776,0.002627442,0.041510742,3.0299017,0.01443576,5.8792663,0.1,0.57888204,0.4529206,0.19078368,0.12450434,inf,inf,inf,inf,1,1,1,1,16,85,16,100,4,0,1,1,1,0
562797160,562796815,45936231,42.3585499,-71.08724959999999,4.1918726,-3.2491848,5.1142964,47.302635,102.79922,-0.00024282932,0.022802122,0.014685288,0.027963767,0.020230789,10.28581,20.871662,-1.5133445,-0.1003741,-0.13909651,-0.57970256,3.0295382,0.01443576,5.8792663,0.1,0.5725498,0.45436344,0.189468,0.12452626,inf,inf,inf,inf,1,1,1,1,16,85,16,100,4,0,1,1,1,0
563294954,563294547,45936231,42.3585499,-71.08724959999999,4.1723285,-3.2225733,5.107601,47.302635,102.79922,-0.00024282932,0.015540012,0.013879441,0.023492698,0.003194246,10.28581,20.871662,-1.5133445,0.008599729,-0.013960062,0.005028796,3.0291944,0.01443576,5.8792663,0.1,0.5865913,0.4578513,0.19562197,0.12589724,inf,inf,inf,inf,1,1,1,1,16,85,16,100,4,0,1,1,1,0
563792634,563792280,45936231,42.3585499,-71.08724959999999,4.1505804,-3.1923306,5.108708,47.302635,102.79922,-0.00024282932,0.01239862,0.014449197,0.024463825,0.004483321,10.28581,20.871662,-1.5133445,-0.0025349583,0.015037535,0.0056852316,3.028745,0.01443576,5.8792663,0.1,0.576884,0.45396686,0.1923863,0.124897145,inf,inf,inf,inf,1,1,1,1,16,85,16,100,4,0,1,1,1,0
564300389,564299967,45936231,42.3585499,-71.08724959999999,4.1120124,-3.1628034,5.12267,47.302635,102.79922,-0.00024282932,0.006418095,0.0120806955,0.02169488,0.012857935,10.28581,20.871662,-1.5133445,0.0322389,-0.0047570905,-0.075972505,3.0281754,0.01443576,5.8792663,0.102303505,0.586727,0.45617953,0.19455576,0.12536544,inf,inf,inf,inf,1,1,1,1,16,85,16,100,4,0,1,1,1,0
564798078,564797700,45936231,42.3585499,-71.08724959999999,4.088516,-3.1671286,5.1260543,47.302635,102.79922,-0.00024282932,0.01427513,-0.0042108893,0.023802117,0.011460921,10.28581,20.871662,-1.5133445,-0.011057681,-0.01199664,0.009529928,3.0276654,0.01443576,5.8792663,0.1,0.5819659,0.4579225,0.19501767,0.12583536,inf,inf,inf,inf,1,1,1,1,16,85,16,100,4,0,1,1,1,0
565295953,565295432,45936231,42.3585499,-71.08724959999999,4.031042,-3.150558,5.132063,47.302635,102.79922,-0.00024282932,-7.470371e-07,-0.007989425,0.041447207,0.02392227,10.28581,20.871662,-1.5133445,0.02074489,-0.053933796,-0.037519753,3.0272145,0.01443576,5.8792663,0.1,0.60057735,0.45869958,0.20354614,0.12720363,inf,inf,inf,inf,1,1,1,1,16,85,16,100,4,0,1,1,1,0
565793511,565793165,45936231,42.3585499,-71.08724959999999,3.955117,-3.133356,5.135118,47.302635,102.79922,-0.00024282932,-0.009948603,-0.008930708,0.036717035,0.015092282,10.28581,20.871662,-1.5133445,0.014597007,0.023181882,0.12925783,3.0264218,0.01443576,5.8792663,0.1,0.58628345,0.45694932,0.19504476,0.12569393,inf,inf,inf,inf,1,1,1,1,16,85,16,100,4,0,1,1,1,0
566291237,566290897,45936231,42.3585499,-71.08724959999999,3.8786871,-3.109766,5.1446633,47.302635,102.79922,-0.00024282932,-0.020190544,-0.009523634,0.035274234,0.016155468,10.28581,20.871662,-1.5133445,0.03608587,-0.057864286,0.025648506,3.0258863,0.01443576,5.8792663,0.1,0.5966521,0.45857236,0.19715977,0.12608112,inf,inf,inf,inf,1,1,1,1,16,85,16,100,4,0,1,1,1,0
566798982,566798584,45936231,42.3585499,-71.08724959999999,3.7995882,-3.0464203,5.145129,47.302635,102.79922,-0.00024282932,-0.037963454,0.008874799,0.035664048,0.011233826,10.28581,20.871662,-1.5133445,-0.03290146,-0.030492844,0.09598516,3.025515,0.01443576,5.8792663,0.1,0.59337795,0.46094,0.19755675,0.12659037,inf,inf,inf,inf,1,1,1,1,16,85,16,100,4,0,1,1,1,0
567296669,567296317,45936231,42.3585499,-71.08724959999999,3.767193,-2.9537897,5.155762,47.302635,102.79922,-0.00024282932,-0.035545953,0.03574509,0.041091733,0.018169612,10.28581,20.871662,-1.5133445,-0.0072333873,0.0923071,0.19485168,3.02498,0.01443576,5.8792663,0.1,0.60977113,0.4604621,0.20374444,0.1273446,inf,inf,inf,inf,1,1,1,1,16,85,16,100,4,0,1,1,1,0
567794471,567794050,45936231,42.3585499,-71.08724959999999,3.766496,-2.8329508,5.1755505,47.302635,102.79922,-0.00024282932,-0.007260896,0.06943005,0.03683432,0.024492623,10.28581,20.871662,-1.5133445,0.009261215,0.019531867,0.07054895,3.0245652,0.01443576,5.8792663,0.10071659,0.6065529,0.4622306,0.20379455,0.12773052,inf,inf,inf,inf,1,1,1,1,16,85,16,100,4,0,1,1,1,0
568292133,568291782,45936231,42.3585499,-71.08724959999999,3.749524,-2.6977932,5.1953955,47.302635,102.79922,-0.00024282932,-0.00524075,0.1020474,0.054959692,0.04404089,10.28581,20.871662,-1.5133445,0.0209652,0.1540918,-0.11363709,3.0243201,0.01443576,5.8792663,0.1,0.6236605,0.4656512,0.20923904,0.12888892,inf,inf,inf,inf,1,1,1,1,16,85,16,100,4,0,1,1,1,0
568799844,568799470,45936231,42.3585499,-71.08724959999999,3.6618783,-2.6530888,5.2086344,47.302635,102.79922,-0.00024282932,-0.030032666,0.08825824,0.053452693,0.03590087,10.28581,20.871662,-1.5133445,0.019626932,-0.020761581,0.12755682,3.0238888,0.01443576,5.8792663,0.1,0.62223977,0.46425557,0.20924209,0.12878118,inf,inf,inf,inf,1,1,1,1,16,85,16,100,4,0,1,1,1,0
569297618,569297202,45936231,42.3585499,-71.08724959999999,3.5750327,-2.6537175,5.2227254,47.302635,102.79922,-0.00024282932,-0.046323214,0.06543565,0.060119838,0.038001213,10.28581,20.871662,-1.5133445,-0.0140362065,-0.12175679,-0.11834441,3.0234118,0.01443576,5.8792663,0.1,0.64005727,0.46757895,0.21432093,0.12981115,inf,inf,inf,inf,1,1,1,1,16,85,16,100,4,0,1,1,1,0
569795293,569794935,45936231,42.3585499,-71.08724959999999,3.5652034,-2.6539295,5.239686,47.302635,102.79922,-0.00024282932,-0.030860597,0.038891893,0.06636565,0.04262776,10.28581,20.871662,-1.5133445,-0.0019690823,0.032918856,0.090889364,3.0228126,0.01443576,5.8792663,0.1,0.6301692,0.46741617,0.2084614,0.12905596,inf,inf,inf,inf,1,1,1,1,16,85,16,100,4,0,1,1,1,0
570293019,570292668,45936231,42.3585499,-71.08724959999999,3.530678,-2.6005354,5.2515855,47.302635,102.79922,-0.00024282932,-0.031787638,0.042435348,0.06565797,0.033996258,10.28581,20.871662,-1.5133445,-0.02340588,0.0103084035,0.010740011,3.022368,0.01443576,5.8792663,0.1,0.65112907,0.47162282,0.2162275,0.13056765,inf,inf,inf,inf,1,1,1,1,16,85,16,100,4,0,1,1,1,0
570790758,570790400,45936231,42.3585499,-71.08724959999999,3.4964166,-2.5744214,5.2373633,47.302635,102.79922,-0.00024282932,-0.022662787,0.033153143,0.051695224,-0.0026309318,10.28581,20.871662,-1.5133445,0.031462226,0.0043215663,0.050103534,3.0219586,0.01443576,5.8792663,0.1,0.6546069,0.47530848,0.21990123,0.13172103,inf,inf,inf,inf,1,1,1,1,16,85,16,100,4,0,1,1,1,0
571298471,571298088,45936231,42.3585499,-71.08724959999999,3.5197785,-2.5184667,5.2259912,47.302635,102.79922,-0.00024282932,0.00091803074,0.039367862,0.050627828,-0.008381365,10.28581,20.871662,-1.5133445,0.027218383,-0.16480108,0.2719077,3.0214794,0.01443576,5.8792663,0.1,0.6806226,0.47647762,0.2285767,0.13273832,inf,inf,inf,inf,1,1,1,1,16,85,16,100,4,0,1,1,1,0
571796164,571795821,45936231,42.3585499,-71.08724959999999,3.5691411,-2.509115,5.225832,47.302635,102.79922,-0.00024282932,0.030305943,0.024919847,0.05471272,-0.0007830372,10.28581,20.871662,-1.5133445,0.011469122,-0.02012748,-0.06181185,3.0211637,0.01443576,5.8792663,0.1,0.6804892,0.47928882,0.22862637,0.13327757,inf,inf,inf,inf,1,1,1,1,16,85,16,100,4,0,1,1,1,0
572293906,572293553,45936231,42.3585499,-71.08724959999999,3.565186,-2.4925249,5.2237234,47.302635,102.79922,-0.00024282932,0.031639885,0.019319735,0.050857965,-0.004370647,10.28581,20.871662,-1.5133445,0.013954407,-0.06238231,0.03565372,3.0207188,0.01443576,5.8792663,0.1,0.7000144,0.48245543,0.23282927,0.1339894,inf,inf,inf,inf,1,1,1,1,16,85,16,100,4,0,1,1,1,0
572791629,572791286,45936231,42.3585499,-71.08724959999999,3.5447872,-2.46981,5.2184024,47.302635,102.79922,-0.00024282932,0.030699624,0.0149487415,0.051224586,-0.005494372,10.28581,20.871662,-1.5133445,0.010896729,-0.10728586,-0.05952719,3.020183,0.01443576,5.8792663,0.1,0.685233,0.48163486,0.2237474,0.13280478,inf,inf,inf,inf,1,1,1,1,16,85,16,100,4,0,1,1,1,0
573299318,573298973,45936231,42.3585499,-71.08724959999999,3.4822357,-2.4449162,5.206659,47.302635,102.79922,-0.00024282932,0.013713123,0.014755145,0.043073885,-0.018063977,10.28581,20.871662,-1.5133445,0.0026056713,-0.040035073,0.052242003,3.01969,0.01443576,5.8792663,0.1,0.7106156,0.48215663,0.23244941,0.13360934,inf,inf,inf,inf,1,1,1,1,16,85,16,100,4,0,1,1,1,0
573797109,573796706,45936231,42.3585499,-71.08724959999999,3.4136882,-2.4358907,5.2030296,47.302635,102.79922,-0.00024282932,-0.0018609145,0.002927151,0.044845365,-0.013717543,10.28581,20.871662,-1.5133445,4.7843096e-05,-0.0048972727,-0.13717894,3.019296,0.01443576,5.8792663,0.1,0.68400174,0.47832388,0.21771781,0.13122135,inf,inf,inf,inf,1,1,1,1,16,85,16,100,4,0,1,1,1,0
574294928,574294439,45936231,42.3585499,-71.08724959999999,3.3974533,-2.4178064,5.1825895,47.302635,102.79922,-0.00024282932,0.0019179299,-0.0052085784,0.0348509,-0.032868393,10.28581,20.871662,-1.5133445,-0.0074975444,0.16391164,-0.396505,3.0168333,0.01443576,5.8792663,0.1,0.6980277,0.48025608,0.22166508,0.13174146,inf,inf,inf,inf,1,1,1,1,16,85,16,100,4,0,1,1,1,0
574792515,574792171,45936231,42.3585499,-71.08724959999999,3.3501387,-2.3983626,5.1383495,47.302635,102.79922,-0.00024282932,-0.0071790353,-0.016682796,0.036241926,-0.053692497,10.28581,20.871662,-1.5133445,0.009464104,0.020012127,-0.028756302,3.0166028,0.01443576,5.8792663,0.1,0.6803402,0.47847396,0.21413448,0.1305137,inf,inf,inf,inf,1,1,1,1,16,85,16,100,4,0,1,1,1,0
575300349,575299859,45936231,42.3585499,-71.08724959999999,3.3334947,-2.3666222,5.1028376,47.302635,102.79922,-0.00024282932,-0.003583428,-0.017772531,0.029481841,-0.06430799,10.28581,20.871662,-1.5133445,0.29990402,-0.08881793,-0.022143269,3.0172284,0.01443576,5.8792663,0.10490751,0.6602246,0.47164622,0.20414357,0.12808365,inf,inf,inf,inf,1,1,1,1,16,85,16,100,4,0,1,1,1,0
575797933,575797591,45936231,42.3585499,-71.08724959999999,3.300272,-2.2976356,5.097883,47.302635,102.79922,-0.00024282932,-0.0009046242,-0.006002913,0.04209734,-0.031359,10.28581,20.871662,-1.5133445,0.022730019,0.06554204,-0.09556752,3.01759,0.01443576,5.8792663,0.1048646,0.6688654,0.47239894,0.20691827,0.12836988,inf,inf,inf,inf,1,1,1,1,16,85,16,100,4,0,1,1,1,0
576295675,576295324,45936231,42.3585499,-71.08724959999999,3.2788029,-2.2140512,5.1002703,47.302635,102.79922,-0.00024282932,0.003660445,0.014574687,0.044879243,-0.012755696,10.28581,20.871662,-1.5133445,0.08542932,0.20267479,0.281854,3.0182192,0.01443576,5.8792663,0.11652756,0.68303764,0.47483474,0.21369247,0.12951477,inf,inf,inf,inf,1,1,1,1,16,85,16,100,4,0,1,1,1,0
576793429,576793056,45936231,42.3585499,-71.08724959999999,3.2296407,-2.1685143,5.1159987,47.302635,102.79922,-0.00024282932,-0.005066864,0.011504275,0.042093877,0.002790641,10.28581,20.871662,-1.5133445,-0.09151269,-0.19484077,0.35829592,3.0194392,0.01443576,5.8792663,0.1,0.67341596,0.47093716,0.21277736,0.12896359,inf,inf,inf,inf,1,1,1,1,16,85,16,100,4,0,1,1,1,0
577291168,577290789,45936231,42.3585499,-71.08724959999999,3.1659467,-2.1477447,5.089128,47.302635,102.79922,-0.00024282932,-0.02220632,0.0022882067,0.029302977,-0.031274334,10.28581,20.871662,-1.5133445,-0.031979118,-0.18284923,-0.39040062,3.019955,0.01443576,5.8792663,0.1,0.6896132,0.47381556,0.21974206,0.1302168,inf,inf,inf,inf,1,1,1,1,16,85,16,100,4,0,1,1,1,0
577798819,577798476,45936231,42.3585499,-71.08724959999999,3.146971,-2.1137466,5.069336,47.302635,102.79922,-0.00024282932,-0.01750821,0.0019920936,0.021954896,-0.0384724,10.28581,20.871662,-1.5133445,0.012431105,-0.010852869,0.08756452,3.0202477,0.01443576,5.8792663,0.1,0.6856055,0.4763403,0.22090931,0.13092431,inf,inf,inf,inf,1,1,1,1,16,85,16,100,4,0,1,1,1,0
578296598,578296209,45936231,42.3585499,-71.08724959999999,3.1606557,-2.0070043,5.037689,47.302635,102.79922,-0.00024282932,-0.0011996783,0.03321147,0.012372724,-0.056442875,10.28581,20.871662,-1.5133445,-0.00072079984,-0.054567646,-0.045776937,3.020864,0.01443576,5.8792663,0.1,0.7022485,0.47909585,0.22666623,0.13196026,inf,inf,inf,inf,1,1,1,1,16,85,16,100,4,0,1,1,1,0
578794475,578793941,45936231,42.3585499,-71.08724959999999,3.1611636,-1.9607264,4.986787,47.302635,102.79922,-0.00024282932,0.005643578,0.033600442,0.006635451,-0.078719765,10.28581,20.871662,-1.5133445,0.012442195,0.012435673,0.049078837,3.0215344,0.01443576,5.8792663,0.1,0.6910397,0.47468305,0.22206385,0.13090862,inf,inf,inf,inf,1,1,1,1,16,85,16,100,4,0,1,1,1,0
579302044,579301628,45936231,42.3585499,-71.08724959999999,3.1236546,-1.9253176,4.9548554,47.302635,102.79922,-0.00024282932,-0.0070239576,0.03085715,0.0041764528,-0.07035611,10.28581,20.871662,-1.5133445,0.008960342,-0.024358723,-0.016171752,3.0221627,0.01443576,5.8792663,0.10866785,0.70413154,0.47705114,0.22442639,0.13142563,inf,inf,inf,inf,1,1,1,1,16,85,16,100,4,0,1,1,1,0
579789777,579789406,45936231,42.3585499,-71.08724959999999,3.0744605,-1.8976163,4.932449,47.302635,102.79922,-0.00024282932,-0.015460618,0.02616554,-0.0047908714,-0.06891539,10.28581,20.871662,-1.5133445,0.048532248,-0.15395504,-0.12009864,3.022877,0.01443576,5.8792663,0.109342575,0.69862205,0.47786313,0.22437032,0.13171431,inf,inf,inf,inf,1,1,1,1,16,85,16,100,4,0,1,1,1,0
580297434,580297093,45936231,42.3585499,-71.08724959999999,3.0151594,-1.9033482,4.9285226,47.302635,102.79922,-0.00024282932,-0.03303497,0.006984865,0.02340622,-0.023080908,10.28581,20.871662,-1.5133445,0.012673302,-0.0131372465,0.008191128,3.0249083,0.01443576,5.8792663,0.11280298,0.7232,0.4828948,0.23364776,0.13343789,inf,inf,inf,inf,1,1,1,1,16,85,16,100,4,0,1,1,1,0
580795250,580794825,45936231,42.3585499,-71.08724959999999,2.9785025,-1.8709671,4.9470997,47.302635,102.79922,-0.00024282932,-0.035722304,0.0067166444,0.036828868,0.013036137,10.28581,20.871662,-1.5133445,-0.011479813,-0.07759492,0.048900697,3.0255864,0.01443576,5.8792663,0.11233616,0.710953,0.47792098,0.22680968,0.13199763,inf,inf,inf,inf,1,1,1,1,16,85,16,100,4,0,1,1,1,0
581293067,581292557,45936231,42.3585499,-71.08724959999999,3.0154052,-1.8157439,4.9715657,47.302635,102.79922,-0.00024282932,-0.004039839,0.015271627,0.034867566,0.024628911,10.28581,20.871662,-1.5133445,0.005912798,-0.014300942,0.021767529,3.0269723,0.01443576,5.8792663,0.1160593,0.70896417,0.47991917,0.227217,0.13246349,inf,inf,inf,inf,1,1,1,1,16,85,16,100,4,0,1,1,1,0
581800586,581800244,45936231,42.3585499,-71.08724959999999,2.913128,-1.6822493,5.006061,47.302635,102.79922,-0.00024282932,-0.045895368,0.05266012,0.04984752,0.05440657,10.28581,20.871662,-1.5133445,-0.111985825,0.15717112,0.120837644,3.0276556,0.01443576,5.8792663,0.109733105,0.7267847,0.48317763,0.2309655,0.13319857,inf,inf,inf,inf,1,1,1,1,16,85,16,100,4,0,1,1,1,0
582298381,582297976,45936231,42.3585499,-71.08724959999999,2.8678377,-1.5714828,5.044965,47.302635,102.79922,-0.00024282932,-0.051777706,0.07611713,0.048245374,0.058903668,10.28581,20.871662,-1.5133445,0.011278372,0.020343883,0.09436615,3.0270925,0.01443576,5.8792663,0.10045481,0.73626494,0.4837342,0.23022503,0.13298374,inf,inf,inf,inf,1,1,1,1,16,85,16,100,4,0,1,1,1,0
582796106,582795708,45936231,42.3585499,-71.08724959999999,2.8116925,-1.5790199,5.0729933,47.302635,102.79922,-0.00024282932,-0.061200388,0.05259333,0.051831912,0.05592274,10.28581,20.871662,-1.5133445,0.020025944,0.016033381,-0.0049098027,3.0284665,0.01443576,5.8792663,0.1,0.7216126,0.4780378,0.22374442,0.13138598,inf,inf,inf,inf,1,1,1,1,16,85,16,100,4,0,1,1,1,0
583293801,583293442,45936231,42.3585499,-71.08724959999999,2.772525,-1.6124009,5.074098,47.302635,102.79922,-0.00024282932,-0.061189838,0.02687352,0.0387389,0.021522567,10.28581,20.871662,-1.5133445,-0.024759963,-0.014930019,-0.05157389,3.0285575,0.01443576,5.8792663,0.1,0.74064183,0.48113677,0.23057424,0.1325002,inf,inf,inf,inf,1,1,1,1,16,85,16,100,4,0,1,1,1,0
583791586,583791172,45936231,42.3585499,-71.08724959999999,2.7288387,-1.6438675,5.0485735,47.302635,102.79922,-0.00024282932,-0.06381197,0.010026563,0.03933058,-0.005624134,10.28581,20.871662,-1.5133445,-0.02609871,0.029101454,0.06003839,3.0286171,0.01443576,5.8792663,0.1,0.7212263,0.479094,0.22109623,0.13112892,inf,inf,inf,inf,1,1,1,1,16,85,16,100,4,0,1,1,1,0
584299236,584298859,45936231,42.3585499,-71.08724959999999,2.6491356,-1.6740344,5.0265136,47.302635,102.79922,-0.00024282932,-0.0826171,-0.0077161756,0.035585623,-0.022710312,10.28581,20.871662,-1.5133445,0.013869345,-0.021549508,-0.066259205,3.029269,0.01443576,5.8792663,0.1,0.7396155,0.47827622,0.22812338,0.1316751,inf,inf,inf,inf,1,1,1,1,16,85,16,100,4,0,1,1,1,0
584796969,584796591,45936231,42.3585499,-71.08724959999999,2.605098,-1.7172816,5.0026703,47.302635,102.79922,-0.00024282932,-0.07776166,-0.023631727,0.036939878,-0.029955987,10.28581,20.871662,-1.5133445,0.031989206,-0.032782257,-0.13849385,3.0297527,0.01443576,5.8792663,0.1,0.71474904,0.47468904,0.2157636,0.129667,inf,inf,inf,inf,1,1,1,1,16,85,16,100,4,0,1,1,1,0
585294673,585294322,45936231,42.3585499,-71.08724959999999,2.5317285,-1.7743211,4.992369,47.302635,102.79922,-0.00024282932,-0.090284176,-0.043703455,0.037952017,-0.023647677,10.28581,20.871662,-1.5133445,-0.01533936,-0.026843373,0.0052668196,3.030703,0.01443576,5.8792663,0.1,0.73321766,0.478113,0.22462562,0.13116844,inf,inf,inf,inf,1,1,1,1,16,85,16,100,4,0,1,1,1,0
585792434,585792054,45936231,42.3585499,-71.08724959999999,2.4158769,-1.8088143,4.9926267,47.302635,102.79922,-0.00024282932,-0.12231108,-0.05506124,0.046386596,-0.0056706234,10.28581,20.871662,-1.5133445,-0.029593982,-0.0030086967,0.023942674,3.0319161,0.01443576,5.8792663,0.103957176,0.7252642,0.47929233,0.22463208,0.13148871,inf,inf,inf,inf,1,1,1,1,16,85,16,100,4,0,1,1,1,0
586300150,586299740,45936231,42.3585499,-71.08724959999999,2.3188345,-1.8249975,5.0034013,47.302635,102.79922,-0.00024282932,-0.13856801,-0.055804413,0.042988222,0.0032568437,10.28581,20.871662,-1.5133445,-0.015608762,-0.015614453,-0.006180758,3.033091,0.01443576,5.8792663,0.10806942,0.745927,0.47927898,0.23340356,0.132381,inf,inf,inf,inf,1,1,1,1,16,85,16,100,4,0,1,1,1,0
586797815,586797472,45936231,42.3585499,-71.08724959999999,2.2831852,-1.8031089,5.02513,47.302635,102.79922,-0.00024282932,-0.12798469,-0.040949747,0.03974965,0.017205145,10.28581,20.871662,-1.5133445,-0.0142154405,-0.0063356627,-0.0003484365,3.0341103,0.01443576,5.8792663,0.10431576,0.72690696,0.47788167,0.2248572,0.1313023,inf,inf,inf,inf,1,1,1,1,16,85,16,100,4,0,1,1,1,0
587295676,587295203,45936231,42.3585499,-71.08724959999999,2.2906063,-1.7559884,5.044814,47.302635,102.79922,-0.00024282932,-0.10262131,-0.019295275,0.030591113,0.017005349,10.28581,20.871662,-1.5133445,-0.043344706,0.013841339,-0.016531032,3.035406,0.01443576,5.8792663,0.1,0.74645346,0.4814589,0.2334218,0.13270615,inf,inf,inf,inf,1,1,1,1,16,85,16,100,4,0,1,1,1,0
587793296,587792935,45936231,42.3585499,-71.08724959999999,2.332858,-1.7219608,5.0632496,47.302635,102.79922,-0.00024282932,-0.07349841,-0.0066796173,0.03034477,0.02568248,10.28581,20.871662,-1.5133445,-0.010827842,-0.0014758919,0.07302524,3.0365252,0.01443576,5.8792663,0.11256313,0.7116924,0.4752852,0.21318236,0.12933409,inf,inf,inf,inf,1,1,1,1,16,85,16,100,4,0,1,1,1,0
588291009,588290666,45936231,42.3585499,-71.08724959999999,2.33238,-1.7252247,5.103441,47.302635,102.79922,-0.00024282932,-0.06426664,-0.010561567,0.031846493,0.04515846,10.28581,20.871662,-1.5133445,0.020333545,0.014755295,-0.06408855,3.0379915,0.01443576,5.8792663,0.10440397,0.7187847,0.47561055,0.21467619,0.12941287,inf,inf,inf,inf,1,1,1,1,16,85,16,100,4,0,1,1,1,0
588798703,588798352,45936231,42.3585499,-71.08724959999999,2.332093,-1.6985735,5.120648,47.302635,102.79922,-0.00024282932,-0.050591152,-0.00081610074,0.037669074,0.04354567,10.28581,20.871662,-1.5133445,-0.00940086,-0.0022913236,-0.010620166,3.0391555,0.01443576,5.8792663,0.1,0.7070368,0.47140646,0.2119976,0.12850909,inf,inf,inf,inf,1,1,1,1,16,85,16,100,4,0,1,1,1,0
589296425,589296083,45936231,42.3585499,-71.08724959999999,2.3248327,-1.6721392,5.1405663,47.302635,102.79922,-0.00024282932,-0.03826874,0.005285914,0.05414841,0.054133806,10.28581,20.871662,-1.5133445,-0.029983332,-0.018180378,0.0562884,3.0407147,0.01443576,5.8792663,0.1,0.71648616,0.47243127,0.21518005,0.12897861,inf,inf,inf,inf,1,1,1,1,16,85,16,100,4,0,1,1,1,0
589794196,589793814,45936231,42.3585499,-71.08724959999999,2.3317988,-1.6463246,5.153327,47.302635,102.79922,-0.00024282932,-0.016570935,0.00889546,0.07030927,0.053949244,10.28581,20.871662,-1.5133445,0.025468698,-0.0017560602,0.06386922,3.0415032,0.01443576,5.8792663,0.1,0.70577645,0.47229865,0.21300276,0.12881778,inf,inf,inf,inf,1,1,1,1,16,85,16,100,4,0,1,1,1,0
590291887,590291545,45936231,42.3585499,-71.08724959999999,2.3056407,-1.6010394,5.170183,47.302635,102.79922,-0.00024282932,-0.010208761,0.021125138,0.07951591,0.054526683,10.28581,20.871662,-1.5133445,0.035945415,-0.01883585,-0.052282445,3.0427163,0.01443576,5.8792663,0.1,0.7232073,0.47576648,0.22129767,0.13037224,inf,inf,inf,inf,1,1,1,1,16,85,16,100,4,0,1,1,1,0
590799575,590799230,45936231,42.3585499,-71.08724959999999,2.316337,-1.5200231,5.1923957,47.302635,102.79922,-0.00024282932,0.0086651,0.04493069,0.091589175,0.05987155,10.28581,20.871662,-1.5133445,0.003724297,-0.030105922,-0.0042728283,3.0434232,0.01443576,5.8792663,0.1,0.7276694,0.47613397,0.22841904,0.13148648,inf,inf,inf,inf,1,1,1,1,16,85,16,100,4,0,1,1,1,0
591297302,591296961,45936231,42.3585499,-71.08724959999999,2.314068,-1.4760414,5.207713,47.302635,102.79922,-0.00024282932,0.017077588,0.05106866,0.08673596,0.045968194,10.28581,20.871662,-1.5133445,0.0031534168,-0.012105033,-0.08448072,3.0436013,0.01443576,5.8792663,0.1,0.7516657,0.4807486,0.23840438,0.13325864,inf,inf,inf,inf,1,1,1,1,16,85,16,100,4,0,1,1,1,0
591795066,591794692,45936231,42.3585499,-71.08724959999999,2.3064272,-1.4102372,5.204869,47.302635,102.79922,-0.00024282932,0.025989216,0.06367868,0.071881026,0.013628509,10.28581,20.871662,-1.5133445,-0.028007092,0.014617221,-0.13043936,3.0433047,0.01443576,5.8792663,0.1,0.73447263,0.47981736,0.22931735,0.13225155,inf,inf,inf,inf,1,1,1,1,16,85,16,100,4,0,1,1,1,0
592292935,592292422,45936231,42.3585499,-71.08724959999999,2.261863,-1.3842582,5.183872,47.302635,102.79922,-0.00024282932,0.0162967,0.05671086,0.050654836,-0.023923375,10.28581,20.871662,-1.5133445,0.002163704,-0.037954558,0.07267914,3.0406084,0.01443576,5.8792663,0.1,0.76006496,0.48025727,0.24047244,0.13343525,inf,inf,inf,inf,1,1,1,1,16,85,16,100,4,0,1,1,1,0
592800450,592800107,45936231,42.3585499,-71.08724959999999,2.194413,-1.3891138,5.1593776,47.302635,102.79922,-0.00024282932,-0.0029059707,0.041687973,0.04176766,-0.038633827,10.28581,20.871662,-1.5133445,-0.102878444,0.24423444,-0.15245585,3.0442722,0.01443576,5.8792663,0.1,0.74742734,0.48113078,0.23433661,0.13298191,inf,inf,inf,inf,1,1,1,1,16,85,16,100,4,0,1,1,1,0
593298185,593297838,45936231,42.3585499,-71.08724959999999,2.1186445,-1.4409916,5.137047,47.302635,102.79922,-0.00024282932,-0.022339378,0.010453907,0.028369384,-0.046990357,10.28581,20.871662,-1.5133445,-0.0031248422,-0.032527164,0.037995033,3.0428596,0.01443576,5.8792663,0.10033417,0.7745555,0.4860495,0.24541731,0.13471705,inf,inf,inf,inf,1,1,1,1,16,85,16,100,4,0,1,1,1,0
593795965,593795568,45936231,42.3585499,-71.08724959999999,2.0586913,-1.4526157,5.1253223,47.302635,102.79922,-0.00024282932,-0.027106289,0.0050840275,0.024272436,-0.038777433,10.28581,20.871662,-1.5133445,0.030280987,0.015892256,0.043968074,3.0432224,0.01443576,5.8792663,0.10849476,0.7635377,0.4865514,0.23956065,0.13424248,inf,inf,inf,inf,1,1,1,1,16,85,16,100,4,0,1,1,1,0
594293682,594293298,45936231,42.3585499,-71.08724959999999,1.9947035,-1.4943566,5.11006,47.302635,102.79922,-0.00024282932,-0.041666,-0.016848892,0.037860125,-0.024035769,10.28581,20.871662,-1.5133445,0.025512228,-0.0116307745,0.0021118869,3.0430746,0.01443576,5.8792663,0.1,0.79201233,0.48645642,0.25001922,0.13504826,inf,inf,inf,inf,1,1,1,1,16,85,16,100,4,0,1,1,1,0
594791415,594791028,45936231,42.3585499,-71.08724959999999,1.8273339,-1.6008767,5.087152,47.302635,102.79922,-0.00024282932,-0.091681965,-0.05904222,0.033155072,-0.03492048,10.28581,20.871662,-1.5133445,0.025373941,-0.00013019214,0.03436256,3.04284,0.01443576,5.8792663,0.1,0.79269856,0.48928168,0.25138745,0.13565505,inf,inf,inf,inf,1,1,1,1,16,85,16,100,4,0,1,1,1,0
595299058,595298713,45936231,42.3585499,-71.08724959999999,1.6979346,-1.6558325,5.097324,47.302635,102.79922,-0.00024282932,-0.11419657,-0.07328559,0.032615922,-0.012263528,10.28581,20.871662,-1.5133445,0.0075439825,-0.015683727,0.23710534,3.0429099,0.01443576,5.8792663,0.1068449,0.80923843,0.49190682,0.25267312,0.13590276,inf,inf,inf,inf,1,1,1,1,16,85,16,100,4,0,1,1,1,0
595796790,595796443,45936231,42.3585499,-71.08724959999999,1.6677165,-1.7181735,5.113843,47.302635,102.79922,-0.00024282932,-0.09893108,-0.0896311,0.038545955,0.010838445,10.28581,20.871662,-1.5133445,2.9731376e-05,-0.012634181,0.006916687,3.0434685,0.01443576,5.8792663,0.10699797,0.7943819,0.49153408,0.24493647,0.13510205,inf,inf,inf,inf,1,1,1,1,16,85,16,100,4,0,1,1,1,0
596294585,596294172,45936231,42.3585499,-71.08724959999999,1.6954768,-1.7875828,5.115342,47.302635,102.79922,-0.00024282932,-0.06979465,-0.10471333,0.031678244,0.0014225473,10.28581,20.871662,-1.5133445,0.025871946,-0.032567672,0.049938116,3.0436819,0.01443576,5.8792663,0.1,0.8123843,0.48887053,0.24870184,0.13478634,inf,inf,inf,inf,1,1,1,1,16,85,16,100,4,0,1,1,1,0
596802332,596801857,45936231,42.3585499,-71.08724959999999,1.715012,-1.8101597,5.114701,47.302635,102.79922,-0.00024282932,-0.048061095,-0.09759564,0.031263404,-0.0014143961,10.28581,20.871662,-1.5133445,0.010463183,-0.025663162,0.0068411035,3.0441322,0.01443576,5.8792663,0.1,0.79768115,0.48908538,0.24141121,0.13410683,inf,inf,inf,inf,1,1,1,1,16,85,16,100,4,0,1,1,1,0
597289991,597289631,45936231,42.3585499,-71.08724959999999,1.70561,-1.8301928,5.1189737,47.302635,102.79922,-0.00024282932,-0.037251435,-0.0951692,0.035111442,0.0040493673,10.28581,20.871662,-1.5133445,0.004448221,-0.023150763,-0.046422426,3.044852,0.01443576,5.8792663,0.1,0.8115319,0.4896953,0.24421538,0.13427027,inf,inf,inf,inf,1,1,1,1,16,85,16,100,4,0,1,1,1,0
597797660,597797315,45936231,42.3585499,-71.08724959999999,1.701692,-1.834247,5.107269,47.302635,102.79922,-0.00024282932,-0.025590355,-0.08390481,0.028459312,-0.01162318,10.28581,20.871662,-1.5133445,0.011287668,0.009166286,-0.09015286,3.0456653,0.01443576,5.8792663,0.1,0.79328376,0.4888864,0.23551257,0.13326223,inf,inf,inf,inf,1,1,1,1,16,85,16,100,4,0,1,1,1,0
598295435,598295045,45936231,42.3585499,-71.08724959999999,1.6647986,-1.8377613,5.0913763,47.302635,102.79922,-0.00024282932,-0.026487172,-0.076457046,0.020022454,-0.026373709,10.28581,20.871662,-1.5133445,0.016378632,-0.014285431,-0.021055168,3.046291,0.01443576,5.8792663,0.1,0.8154839,0.48723528,0.24402761,0.13370521,inf,inf,inf,inf,1,1,1,1,16,85,16,100,4,0,1,1,1,0
598793163,598792774,45936231,42.3585499,-71.08724959999999,1.6771334,-1.8386985,5.0646734,47.302635,102.79922,-0.00024282932,-0.008438296,-0.06738358,0.02362251,-0.032962874,10.28581,20.871662,-1.5133445,0.006806523,-0.013359352,0.0033066426,3.0468063,0.01443576,5.8792663,0.100241184,0.8036973,0.48719344,0.2396006,0.13333423,inf,inf,inf,inf,1,1,1,1,16,85,16,100,4,0,1,1,1,0
599300804,599300457,45936231,42.3585499,-71.08724959999999,1.6507565,-1.8184884,5.061931,47.302635,102.79922,-0.00024282932,-0.0077981506,-0.052843537,0.026987989,-0.018339856,10.28581,20.871662,-1.5133445,0.012915129,0.014339438,-0.035979338,3.047601,0.01443576,5.8792663,0.10248089,0.82058084,0.48976058,0.2439274,0.13400243,inf,inf,inf,inf,1,1,1,1,16,85,16,100,4,0,1,1,1,0
599798554,599798186,45936231,42.3585499,-71.08724959999999,1.6045855,-1.7896253,5.0457635,47.302635,102.79922,-0.00024282932,-0.01407676,-0.034987174,0.014714676,-0.033986304,10.28581,20.871662,-1.5133445,-0.0077231433,0.008207942,0.014628324,3.04807,0.01443576,5.8792663,0.1,0.8111491,0.49023414,0.24130808,0.13391192,inf,inf,inf,inf,1,1,1,1,16,85,16,100,4,0,1,1,1,0
600296344,600295915,45936231,42.3585499,-71.08724959999999,1.5691177,-1.7381186,5.0243764,47.302635,102.79922,-0.00024282932,-0.01758266,-0.013384813,0.012295943,-0.03852181,10.28581,20.871662,-1.5133445,-0.017738687,0.011130979,0.02640823,3.0481586,0.01443576,5.8792663,0.1,0.8280958,0.48751336,0.24622656,0.13385437,inf,inf,inf,inf,1,1,1,1,16,85,16,100,4,0,1,1,1,0
600794014,600793643,45936231,42.3585499,-71.08724959999999,1.5103396,-1.7090026,4.9954114,47.302635,102.79922,-0.00024282932,-0.024836514,-0.004235183,-0.00059704797,-0.053691372,10.28581,20.871662,-1.5133445,0.016191179,0.02448991,-0.037824392,3.0482495,0.01443576,5.8792663,0.10678053,0.8172292,0.48799682,0.24346468,0.13377993,inf,inf,inf,inf,1,1,1,1,16,85,16,100,4,0,1,1,1,0
601291768,601291372,45936231,42.3585499,-71.08724959999999,1.3886223,-1.6162695,4.9662113,47.302635,102.79922,-0.00024282932,-0.056584224,0.02708848,-0.01330285,-0.06685963,10.28581,20.871662,-1.5133445,0.15275243,-0.012095434,-0.07579961,3.0484426,0.01443576,5.8792663,0.1,0.8336368,0.49019304,0.24857388,0.13451052,inf,inf,inf,inf,1,1,1,1,16,85,16,100,4,0,1,1,1,0
601799477,601799055,45936231,42.3585499,-71.08724959999999,1.1455338,-1.4463757,4.9139743,47.302635,102.79922,-0.00024282932,-0.12896055,0.081003726,-0.0216517,-0.08609223,10.28581,20.871662,-1.5133445,-0.028473683,0.042552486,0.038643017,3.0482614,0.01443576,5.8792663,0.102396965,0.8295652,0.4881735,0.24983355,0.13443571,inf,inf,inf,inf,1,1,1,1,16,85,16,100,4,0,1,1,1,0
602297128,602296783,45936231,42.3585499,-71.08724959999999,1.0033137,-1.3100314,4.890799,47.302635,102.79922,-0.00024282932,-0.15438195,0.11427005,-0.029163409,-0.07471916,10.28581,20.871662,-1.5133445,0.004289717,0.007833961,-0.07158554,3.046814,0.01443576,5.8792663,0.115552425,0.8519556,0.4912751,0.25757056,0.13549468,inf,inf,inf,inf,1,1,1,1,16,85,16,100,4,0,1,1,1,0
602794863,602794511,45936231,42.3585499,-71.08724959999999,0.90518606,-1.1666939,4.879785,47.302635,102.79922,-0.00024282932,-0.15979393,0.1451901,-0.025953462,-0.0512476,10.28581,20.871662,-1.5133445,-0.07976012,0.02987936,-0.0063723745,3.0466423,0.01443576,5.8792663,0.11831474,0.84759694,0.4932131,0.25783724,0.13593255,inf,inf,inf,inf,1,1,1,1,16,85,16,100,4,0,1,1,1,0
603292586,603292239,45936231,42.3585499,-71.08724959999999,0.7946596,-1.0683038,4.880483,47.302635,102.79922,-0.00024282932,-0.1733965,0.15438573,-0.022587037,-0.028723689,10.28581,20.871662,-1.5133445,-0.03048823,0.03622832,0.03203023,3.0462961,0.01443576,5.8792663,0.11143446,0.87063086,0.49619102,0.26458657,0.13681993,inf,inf,inf,inf,1,1,1,1,16,85,16,100,4,0,1,1,1,0
603800262,603799921,45936231,42.3585499,-71.08724959999999,0.7165008,-1.003631,4.871852,47.302635,102.79922,-0.00024282932,-0.17099085,0.14895187,-0.024774767,-0.02782358,10.28581,20.871662,-1.5133445,-0.0131775495,0.037701316,0.0680788,3.0460162,0.01443576,5.8792663,0.11307764,0.8582351,0.4924641,0.25867507,0.1357955,inf,inf,inf,inf,1,1,1,1,16,85,16,100,4,0,1,1,1,0
604298179,604297649,45936231,42.3585499,-71.08724959999999,0.6609364,-0.9713926,4.88094,47.302635,102.79922,-0.00024282932,-0.159009,0.14040665,-0.022447579,-0.008203272,10.28581,20.871662,-1.5133445,0.043699067,-0.15854318,0.029054143,3.0439007,0.01443576,5.8792663,0.1164794,0.84332085,0.49225277,0.25163752,0.13519286,inf,inf,inf,inf,1,1,1,1,16,85,16,100,4,0,1,1,1,0
604795721,604795377,45936231,42.3585499,-71.08724959999999,0.68761194,-0.89831793,4.9072604,47.302635,102.79922,-0.00024282932,-0.123880215,0.13819791,-0.008316039,0.027771972,10.28581,20.871662,-1.5133445,-0.0124053825,-0.10093648,-0.029883545,3.0401533,0.01443576,5.8792663,0.12375927,0.84416866,0.4910418,0.24501324,0.13418074,inf,inf,inf,inf,1,1,1,1,16,85,16,100,4,0,1,1,1,0
605293477,605293104,45936231,42.3585499,-71.08724959999999,0.69582915,-0.833677,4.9254885,47.302635,102.79922,-0.00024282932,-0.09919823,0.1400329,-0.0033707877,0.030436993,10.28581,20.871662,-1.5133445,0.012895164,0.006627064,0.01985361,3.0430474,0.01443576,5.8792663,0.1,0.8605403,0.49298403,0.2500853,0.1347965,inf,inf,inf,inf,1,1,1,1,16,85,16,100,4,0,1,1,1,0
605791281,605790832,45936231,42.3585499,-71.08724959999999,0.67767143,-0.7375617,4.9194827,47.302635,102.79922,-0.00024282932,-0.088150285,0.15059015,0.0017524369,0.015693977,10.28581,20.871662,-1.5133445,0.036511026,0.053925063,0.04283453,3.0432262,0.01443576,5.8792663,0.10213852,0.8279104,0.48432422,0.23467308,0.13199355,inf,inf,inf,inf,1,1,1,1,16,85,16,100,4,0,1,1,1,0
606299000,606298513,45936231,42.3585499,-71.08724959999999,0.64564323,-0.6354325,4.9271154,47.302635,102.79922,-0.00024282932,-0.08696416,0.16224553,0.004499194,0.017862631,10.28581,20.871662,-1.5133445,0.029679563,0.036312632,-0.03498982,3.0431383,0.01443576,5.8792663,0.11592817,0.80867916,0.48356685,0.22767568,0.13119082,inf,inf,inf,inf,1,1,1,1,16,85,16,100,4,0,1,1,1,0
606796636,606796240,45936231,42.3585499,-71.08724959999999,0.636818,-0.55273193,4.9467816,47.302635,102.79922,-0.00024282932,-0.07232669,0.17036766,0.004894835,0.024124265,10.28581,20.871662,-1.5133445,0.0057730433,0.0023363028,0.00024811894,3.0431879,0.01443576,5.8792663,0.1,0.8229455,0.48582998,0.23459992,0.13221508,inf,inf,inf,inf,1,1,1,1,16,85,16,100,4,0,1,1,1,0
607294326,607293967,45936231,42.3585499,-71.08724959999999,0.5974672,-0.49646133,4.950438,47.302635,102.79922,-0.00024282932,-0.06638133,0.17022069,0.012901683,0.023597647,10.28581,20.871662,-1.5133445,0.015388282,0.0019001678,-0.032923955,3.0429704,0.01443576,5.8792663,0.1,0.82902384,0.48617715,0.23536289,0.13227461,inf,inf,inf,inf,1,1,1,1,16,85,16,100,4,0,1,1,1,0
607792055,607791694,45936231,42.3585499,-71.08724959999999,0.5998637,-0.5353893,4.9515424,47.302635,102.79922,-0.00024282932,-0.04934095,0.13512343,0.01570911,0.016358016,10.28581,20.871662,-1.5133445,0.0211301,0.027987415,-0.045747276,3.0431116,0.01443576,5.8792663,0.1,0.80775756,0.4845926,0.22885749,0.1314669,inf,inf,inf,inf,1,1,1,1,16,85,16,100,4,0,1,1,1,0
608289854,608289421,45936231,42.3585499,-71.08724959999999,0.59046835,-0.5905539,4.9452715,47.302635,102.79922,-0.00024282932,-0.03444416,0.10204809,0.009058922,9.365642e-05,10.28581,20.871662,-1.5133445,-0.0041196328,0.018914245,0.06733403,3.0429845,0.01443576,5.8792663,0.1,0.81035846,0.4796943,0.22868948,0.13065393,inf,inf,inf,inf,1,1,1,1,16,85,16,100,4,0,1,1,1,0
608797451,608797102,45936231,42.3585499,-71.08724959999999,0.576752,-0.572858,4.9407325,47.302635,102.79922,-0.00024282932,-0.019339468,0.10172693,0.0037451063,-0.008721348,10.28581,20.871662,-1.5133445,0.021233356,0.016287133,-2.3518218e-05,3.0429513,0.01443576,5.8792663,0.1,0.7944258,0.48002487,0.22556648,0.13051128,inf,inf,inf,inf,1,1,1,1,16,85,16,100,4,0,1,1,1,0
609295174,609294828,45936231,42.3585499,-71.08724959999999,0.59212804,-0.59182525,4.9368205,47.302635,102.79922,-0.00024282932,-0.0047380254,0.08523324,0.016266398,0.0019413756,10.28581,20.871662,-1.5133445,0.002863483,0.0034113172,-0.06772851,3.0432768,0.01443576,5.8792663,0.1,0.79023504,0.47789896,0.2205529,0.12953983,inf,inf,inf,inf,1,1,1,1,16,85,16,100,4,0,1,1,1,0
609792994,609792554,45936231,42.3585499,-71.08724959999999,0.5942768,-0.63253856,4.933118,47.302635,102.79922,-0.00024282932,0.0029619238,0.069593996,0.0071893935,-0.005965242,10.28581,20.871662,-1.5133445,0.01739083,-0.019960824,0.061177608,3.0440924,0.01443576,5.8792663,0.10481596,0.78013754,0.47482824,0.22320232,0.12961322,inf,inf,inf,inf,1,1,1,1,16,85,16,100,4,0,1,1,1,0
610301098,610300235,45936231,42.3585499,-71.08724959999999,0.5657698,-0.7091643,4.9382277,47.302635,102.79922,-0.00024282932,-0.0025880977,0.040512387,0.013560835,0.0032697758,10.28581,20.871662,-1.5133445,0.052462664,0.04003621,-0.20946468,3.0447826,0.01443576,5.8792663,0.1,0.7601746,0.47378406,0.21569972,0.12871228,inf,inf,inf,inf,1,1,1,1,16,85,16,100,4,0,1,1,1,0
610798306,610797961,45936231,42.3585499,-71.08724959999999,0.560422,-0.784538,4.943384,47.302635,102.79922,-0.00024282932,0.005180132,0.015379876,0.01577109,0.0118060885,10.28581,20.871662,-1.5133445,-0.005403253,-0.014001172,0.0795793,3.0445306,0.01443576,5.8792663,0.10716963,0.75833386,0.47219697,0.21167219,0.127892,inf,inf,inf,inf,1,1,1,1,16,85,16,100,4,0,1,1,1,0
611296207,611295686,45936231,42.3585499,-71.08724959999999,0.5489092,-0.8532615,4.955171,47.302635,102.79922,-0.00024282932,0.006373494,-0.003983145,0.012892647,0.011786858,10.28581,20.871662,-1.5133445,0.011845312,0.040245872,-0.06845381,3.044614,0.01443576,5.8792663,0.1,0.7448865,0.47230333,0.21066497,0.12795562,inf,inf,inf,inf,1,1,1,1,16,85,16,100,4,0,1,1,1,0
611793761,611793412,45936231,42.3585499,-71.08724959999999,0.5438239,-0.8901147,4.9631734,47.302635,102.79922,-0.00024282932,0.008697218,-0.0038777178,0.018675864,0.01918988,10.28581,20.871662,-1.5133445,-0.037687805,0.035665553,0.08248145,3.0445178,0.01443576,5.8792663,0.1,0.75030094,0.46897215,0.21320611,0.12780195,inf,inf,inf,inf,1,1,1,1,16,85,16,100,4,0,1,1,1,0
612291495,612291138,45936231,42.3585499,-71.08724959999999,0.54988927,-0.9399643,4.969555,47.302635,102.79922,-0.00024282932,0.019523513,-0.008651319,0.015895465,0.012323332,10.28581,20.871662,-1.5133445,-0.010616937,-0.04822731,0.18757905,3.0437307,0.01443576,5.8792663,0.1,0.75564075,0.46982643,0.21553548,0.12822047,inf,inf,inf,inf,1,1,1,1,16,85,16,100,4,0,1,1,1,0
612799192,612798817,45936231,42.3585499,-71.08724959999999,0.5597861,-0.9971205,4.963772,47.302635,102.79922,-0.00024282932,0.027548807,-0.015486751,0.021240342,0.0064584897,10.28581,20.871662,-1.5133445,0.17026561,-0.0802706,0.47233382,3.0391958,0.01443576,5.8792663,0.1,0.73907065,0.46942645,0.21120124,0.12773764,inf,inf,inf,inf,1,1,1,1,16,85,16,100,4,0,1,1,1,0
613297108,613296543,45936231,42.3585499,-71.08724959999999,0.61351025,-1.0959492,4.955439,47.302635,102.79922,-0.00024282932,0.05047926,-0.043989528,0.019385386,-0.0034496975,10.28581,20.871662,-1.5133445,-0.028823653,0.09223094,0.16142419,3.0415742,0.01443576,5.8792663,0.1,0.7333292,0.46784973,0.2154964,0.12830356,inf,inf,inf,inf,1,1,1,1,16,85,16,100,4,0,1,1,1,0
613794629,613794268,45936231,42.3585499,-71.08724959999999,0.6550377,-1.214767,4.9411182,47.302635,102.79922,-0.00024282932,0.0632899,-0.07193083,0.022085126,-0.011250099,10.28581,20.871662,-1.5133445,-0.009565494,-0.08720192,-0.14927547,3.040772,0.01443576,5.8792663,0.1,0.75013745,0.47214445,0.22536759,0.13019954,inf,inf,inf,inf,1,1,1,1,16,85,16,100,4,0,1,1,1,0
614292367,614291993,45936231,42.3585499,-71.08724959999999,0.63665694,-1.2708073,4.935409,47.302635,102.79922,-0.00024282932,0.04944906,-0.068799935,0.017626438,-0.013542537,10.28581,20.871662,-1.5133445,0.010708132,-0.042931035,-0.16382028,3.0408738,0.01443576,5.8792663,0.100921154,0.773063,0.47747633,0.23782863,0.13240609,inf,inf,inf,inf,1,1,1,1,16,85,16,100,4,0,1,1,1,0
614790253,614789718,45936231,42.3585499,-71.08724959999999,0.6149231,-1.3468729,4.9195294,47.302635,102.79922,-0.00024282932,0.03288781,-0.07674807,0.009574113,-0.026103998,10.28581,20.871662,-1.5133445,-0.039952293,0.015108939,-0.022888627,3.0403638,0.01443576,5.8792663,0.1,0.76534665,0.47947088,0.23670621,0.13277406,inf,inf,inf,inf,1,1,1,1,16,85,16,100,4,0,1,1,1,0
615297775,615297397,45936231,42.3585499,-71.08724959999999,0.60561943,-1.4060311,4.93067,47.302635,102.79922,-0.00024282932,0.028104981,-0.07384587,0.0047228243,-0.008857954,10.28581,20.871662,-1.5133445,-0.009188989,0.011541498,-0.11916919,3.0413678,0.01443576,5.8792663,0.11003685,0.7724281,0.4767795,0.23506264,0.1320681,inf,inf,inf,inf,1,1,1,1,16,85,16,100,4,0,1,1,1,0
615795468,615795121,45936231,42.3585499,-71.08724959999999,0.62390846,-1.4586192,4.9540796,47.302635,102.79922,-0.00024282932,0.03596145,-0.06761017,0.00660759,0.01319572,10.28581,20.871662,-1.5133445,0.035791226,0.032215778,-0.06797477,3.0413632,0.01443576,5.8792663,0.10839081,0.7521823,0.47548765,0.22577101,0.13089989,inf,inf,inf,inf,1,1,1,1,16,85,16,100,4,0,1,1,1,0
616293197,616292846,45936231,42.3585499,-71.08724959999999,0.67100316,-1.503378,4.961004,47.302635,102.79922,-0.00024282932,0.05438595,-0.06015818,0.015822588,0.021246307,10.28581,20.871662,-1.5133445,0.0272295,-0.012454647,0.015181473,3.041416,0.01443576,5.8792663,0.1,0.7612557,0.47710955,0.22793789,0.13125144,inf,inf,inf,inf,1,1,1,1,16,85,16,100,4,0,1,1,1,0
616800870,616800524,45936231,42.3585499,-71.08724959999999,0.71016335,-1.5574015,4.9779315,47.302635,102.79922,-0.00024282932,0.06609255,-0.05660968,0.03260193,0.034481183,10.28581,20.871662,-1.5133445,0.03190196,-0.072530136,-0.038382776,3.0401106,0.01443576,5.8792663,0.1,0.75045484,0.4787871,0.2259821,0.13136314,inf,inf,inf,inf,1,1,1,1,16,85,16,100,4,0,1,1,1,0
617298778,617298248,45936231,42.3585499,-71.08724959999999,0.70829135,-1.6019223,4.98427,47.302635,102.79922,-0.00024282932,0.059540328,-0.04875091,0.055243928,0.044039026,10.28581,20.871662,-1.5133445,-0.039508667,0.098701835,0.122033,3.0392172,0.01443576,5.8792663,0.1,0.7428315,0.4761724,0.22622104,0.1311071,inf,inf,inf,inf,1,1,1,1,16,85,16,100,4,0,1,1,1,0
617796344,617795972,45936231,42.3585499,-71.08724959999999,0.6767509,-1.6492012,4.9924674,47.302635,102.79922,-0.00024282932,0.044346195,-0.04502509,0.041552324,0.020427778,10.28581,20.871662,-1.5133445,-0.08468359,0.043421566,0.11634065,3.038758,0.01443576,5.8792663,0.1,0.7639323,0.48066312,0.23606908,0.13276848,inf,inf,inf,inf,1,1,1,1,16,85,16,100,4,0,1,1,1,0
618294040,618293696,45936231,42.3585499,-71.08724959999999,0.6338151,-1.7040893,4.9968305,47.302635,102.79922,-0.00024282932,0.027040293,-0.0480131,0.04691918,0.02171398,10.28581,20.871662,-1.5133445,0.007063659,-0.012573747,-0.18778361,3.0379725,0.01443576,5.8792663,0.1,0.767664,0.4806779,0.23279382,0.13224109,inf,inf,inf,inf,1,1,1,1,16,85,16,100,4,0,1,1,1,0
618791817,618791420,45936231,42.3585499,-71.08724959999999,0.6151679,-1.6808773,4.990659,47.302635,102.79922,-0.00024282932,0.02112449,-0.01716994,0.024564743,-0.011526032,10.28581,20.871662,-1.5133445,0.016289923,-0.01728703,-0.0032593869,3.037734,0.01443576,5.8792663,0.1,0.7470589,0.4790097,0.22395761,0.13101496,inf,inf,inf,inf,1,1,1,1,16,85,16,100,4,0,1,1,1,0
619300133,619299097,45936231,42.3585499,-71.08724959999999,0.58788365,-1.7252597,4.9630423,47.302635,102.79922,-0.00024282932,0.009290254,-0.019592682,0.020185728,-0.031694807,10.28581,20.871662,-1.5133445,-0.0407657,0.06867317,0.017787747,3.0350091,0.01443576,5.8792663,0.1,0.7200653,0.47126877,0.2108083,0.12818477,inf,inf,inf,inf,1,1,1,1,16,85,16,100,4,0,1,1,1,0
619797222,619796821,45936231,42.3585499,-71.08724959999999,0.57957417,-1.7535673,4.9465966,47.302635,102.79922,-0.00024282932,0.0038252654,-0.018051036,0.014825933,-0.032180548,10.28581,20.871662,-1.5133445,0.015105321,0.035627127,0.045390975,3.0348463,0.01443576,5.8792663,0.10886574,0.72961634,0.47326514,0.21558902,0.12898268,inf,inf,inf,inf,1,1,1,1,16,85,16,100,4,0,1,1,1,0
620295056,620294544,45936231,42.3585499,-71.08724959999999,0.5930434,-1.7501256,4.957752,47.302635,102.79922,-0.00024282932,0.0039578048,-0.0069113206,0.032667965,0.0041174237,10.28581,20.871662,-1.5133445,-0.0064932946,0.012213628,0.07601889,3.0350518,0.01443576,5.8792663,0.109886646,0.7189841,0.47425973,0.21558124,0.12926747,inf,inf,inf,inf,1,1,1,1,16,85,16,100,4,0,1,1,1,0
620792643,620792267,45936231,42.3585499,-71.08724959999999,0.5633832,-1.7332115,4.9828854,47.302635,102.79922,-0.00024282932,-0.011013314,0.005339666,0.040271293,0.028511066,10.28581,20.871662,-1.5133445,0.012998794,0.007138842,0.057795133,3.0340614,0.01443576,5.8792663,0.10293198,0.727016,0.47551298,0.21825232,0.12968539,inf,inf,inf,inf,1,1,1,1,16,85,16,100,4,0,1,1,1,0
621300435,621299944,45936231,42.3585499,-71.08724959999999,0.46097916,-1.6505287,4.9756384,47.302635,102.79922,-0.00024282932,-0.051267676,0.042751376,0.029539296,0.0015107444,10.28581,20.871662,-1.5133445,-0.032220814,0.008240926,0.10222018,3.034266,0.01443576,5.8792663,0.1,0.7190281,0.47333086,0.21870779,0.12957144,inf,inf,inf,inf,1,1,1,1,16,85,16,100,4,0,1,1,1,0
621798024,621797667,45936231,42.3585499,-71.08724959999999,0.39678878,-1.579044,4.9523563,47.302635,102.79922,-0.00024282932,-0.06799659,0.068527706,0.016191514,-0.027681008,10.28581,20.871662,-1.5133445,0.0075278613,-0.023503093,0.009182229,3.0338693,0.01443576,5.8792663,0.1,0.7344742,0.4765842,0.22599198,0.13087517,inf,inf,inf,inf,1,1,1,1,16,85,16,100,4,0,1,1,1,0
622295780,622295390,45936231,42.3585499,-71.08724959999999,0.36917418,-1.5317304,4.934674,47.302635,102.79922,-0.00024282932,-0.06674853,0.0819799,0.00040660356,-0.040551726,10.28581,20.871662,-1.5133445,0.024331175,0.008568716,-0.12711833,3.0329082,0.01443576,5.8792663,0.10523033,0.7507118,0.47977695,0.23286626,0.13206941,inf,inf,inf,inf,1,1,1,1,16,85,16,100,4,0,1,1,1,0
622793480,622793112,45936231,42.3585499,-71.08724959999999,0.35047832,-1.5039183,4.909875,47.302635,102.79922,-0.00024282932,-0.06310154,0.08497689,-0.004555683,-0.04813707,10.28581,20.871662,-1.5133445,0.06291117,-0.011781486,-0.21173115,3.0321312,0.01443576,5.8792663,0.1,0.73960394,0.48053712,0.23002987,0.13202293,inf,inf,inf,inf,1,1,1,1,16,85,16,100,4,0,1,1,1,0
623291258,623290835,45936231,42.3585499,-71.08724959999999,0.3603304,-1.4973243,4.892383,47.302635,102.79922,-0.00024282932,-0.05194537,0.08075386,0.0018753735,-0.035225082,10.28581,20.871662,-1.5133445,-0.041311797,0.05132183,0.22179513,3.03168,0.01443576,5.8792663,0.10612011,0.7553125,0.4787623,0.23522636,0.13223252,inf,inf,inf,inf,1,1,1,1,16,85,16,100,4,0,1,1,1,0
623799073,623798511,45936231,42.3585499,-71.08724959999999,0.35053718,-1.5699418,4.883869,47.302635,102.79922,-0.00024282932,-0.046131767,0.046264507,0.0027331433,-0.027725045,10.28581,20.871662,-1.5133445,-0.023512373,-0.023103548,0.019815957,3.0320263,0.01443576,5.8792663,0.10342789,0.7395414,0.47871897,0.22750421,0.13146774,inf,inf,inf,inf,1,1,1,1,16,85,16,100,4,0,1,1,1,0
624296581,624296234,45936231,42.3585499,-71.08724959999999,0.3293651,-1.5767503,4.858457,47.302635,102.79922,-0.00024282932,-0.04903165,0.047237527,0.00200295,-0.03607659,10.28581,20.871662,-1.5133445,-0.018735906,0.035215117,0.038181286,3.0322306,0.01443576,5.8792663,0.10329914,0.7464733,0.47919792,0.22675952,0.13131401,inf,inf,inf,inf,1,1,1,1,16,85,16,100,4,0,1,1,1,0
624794299,624793955,45936231,42.3585499,-71.08724959999999,0.30203888,-1.5753733,4.838541,47.302635,102.79922,-0.00024282932,-0.054325394,0.050954144,-0.014091793,-0.04959673,10.28581,20.871662,-1.5133445,-0.01643342,0.036984995,-0.05640968,3.031845,0.01443576,5.8792663,0.10211182,0.7369806,0.48008117,0.22541358,0.1314001,inf,inf,inf,inf,1,1,1,1,16,85,16,100,4,0,1,1,1,0
625292057,625291676,45936231,42.3585499,-71.08724959999999,0.28306028,-1.5629572,4.827622,47.302635,102.79922,-0.00024282932,-0.051263053,0.058561284,-0.016580867,-0.03942802,10.28581,20.871662,-1.5133445,0.05705874,-0.0006024696,-0.26381037,3.0310645,0.01443576,5.8792663,0.110982895,0.7453766,0.4765093,0.22639632,0.13083827,inf,inf,inf,inf,1,1,1,1,16,85,16,100,4,0,1,1,1,0
625789794,625789400,45936231,42.3585499,-71.08724959999999,0.2664785,-1.5241042,4.82884,47.302635,102.79922,-0.00024282932,-0.0485509,0.073938034,-0.017285546,-0.023720313,10.28581,20.871662,-1.5133445,0.013710091,-0.007433818,-0.03921062,3.0305805,0.01443576,5.8792663,0.11413288,0.73708546,0.47773135,0.22604898,0.131107,inf,inf,inf,inf,1,1,1,1,16,85,16,100,4,0,1,1,1,0
626297472,626297074,45936231,42.3585499,-71.08724959999999,0.26449022,-1.5118285,4.827319,47.302635,102.79922,-0.00024282932,-0.04147347,0.07704151,-0.009329218,-0.010360258,10.28581,20.871662,-1.5133445,-0.02343615,0.033003453,0.07471874,3.0300145,0.01443576,5.8792663,0.10781431,0.75876904,0.48257315,0.23546116,0.1327976,inf,inf,inf,inf,1,1,1,1,16,85,16,100,4,0,1,1,1,0
626795138,626794795,45936231,42.3585499,-71.08724959999999,0.24535896,-1.5279835,4.8321958,47.302635,102.79922,-0.00024282932,-0.043729544,0.066871665,-0.012178975,-0.004180641,10.28581,20.871662,-1.5133445,-0.042094838,-0.0044054487,-0.045332607,3.0299134,0.01443576,5.8792663,0.113125324,0.7514159,0.4841802,0.234683,0.13309696,inf,inf,inf,inf,1,1,1,1,16,85,16,100,4,0,1,1,1,0
627292889,627292516,45936231,42.3585499,-71.08724959999999,0.266472,-1.5439274,4.8422065,47.302635,102.79922,-0.00024282932,-0.02426196,0.058656424,-0.0019086215,0.011164036,10.28581,20.871662,-1.5133445,0.0047216825,-0.010712587,-0.024825172,3.029452,0.01443576,5.8792663,0.102500916,0.77505386,0.48376375,0.24422745,0.13390213,inf,inf,inf,inf,1,1,1,1,16,85,16,100,4,0,1,1,1,0
627800576,627800192,45936231,42.3585499,-71.08724959999999,0.29170963,-1.542241,4.8476777,47.302635,102.79922,-0.00024282932,-0.01194161,0.058266316,-0.0036863293,0.009140744,10.28581,20.871662,-1.5133445,-0.00024678386,0.009790717,0.060164835,3.029011,0.01443576,5.8792663,0.10095787,0.77434486,0.48744735,0.24622966,0.1347827,inf,inf,inf,inf,1,1,1,1,16,85,16,100,4,0,1,1,1,0
628298451,628297912,45936231,42.3585499,-71.08724959999999,0.31488764,-1.5379391,4.850856,47.302635,102.79922,-0.00024282932,-0.00014132123,0.058084,0.0017388347,0.010969106,10.28581,20.871662,-1.5133445,-0.005618082,0.01740676,0.0061994516,3.0287628,0.01443576,5.8792663,0.10342932,0.7969735,0.49100667,0.25322217,0.13583592,inf,inf,inf,inf,1,1,1,1,16,85,16,100,4,0,1,1,1,0
628796007,628795633,45936231,42.3585499,-71.08724959999999,0.34909147,-1.577717,4.8593297,47.302635,102.79922,-0.00024282932,0.013516404,0.04386072,0.011046766,0.02066511,10.28581,20.871662,-1.5133445,0.0112455,-0.010150583,-0.0017286727,3.0287178,0.01443576,5.8792663,0.10294914,0.7823085,0.48637784,0.24600156,0.1344975,inf,inf,inf,inf,1,1,1,1,16,85,16,100,4,0,1,1,1,0
629293846,629293353,45936231,42.3585499,-71.08724959999999,0.3909057,-1.6516633,4.8695855,47.302635,102.79922,-0.00024282932,0.02640272,0.016176382,0.014311053,0.022728527,10.28581,20.871662,-1.5133445,0.0028826967,-0.0004295191,0.09832498,3.0284247,0.01443576,5.8792663,0.1,0.76520145,0.4858222,0.23756826,0.13361907,inf,inf,inf,inf,1,1,1,1,16,85,16,100,4,0,1,1,1,0
629791463,629791074,45936231,42.3585499,-71.08724959999999,0.3840163,-1.6748576,4.8648,47.302635,102.79922,-0.00024282932,0.020349847,0.015271464,0.005722897,0.0035151045,10.28581,20.871662,-1.5133445,-0.02608704,0.0011486894,0.10670103,3.028184,0.01443576,5.8792663,0.1,0.781306,0.4881041,0.24168219,0.13418157,inf,inf,inf,inf,1,1,1,1,16,85,16,100,4,0,1,1,1,0
630299269,630298748,45936231,42.3585499,-71.08724959999999,0.356041,-1.6960124,4.8717933,47.302635,102.79922,-0.00024282932,0.012654161,0.013589748,0.00812787,0.009079268,10.28581,20.871662,-1.5133445,-0.034259822,0.013393043,0.11290054,3.0281174,0.01443576,5.8792663,0.1,0.7669381,0.48868662,0.23570819,0.1336961,inf,inf,inf,inf,1,1,1,1,16,85,16,100,4,0,1,1,1,0
630796840,630796468,45936231,42.3585499,-71.08724959999999,0.28704086,-1.6963075,4.8729844,47.302635,102.79922,-0.00024282932,-0.00722718,0.018211788,0.014442525,0.0114235785,10.28581,20.871662,-1.5133445,0.002980912,0.00812887,-0.050116282,3.0278463,0.01443576,5.8792663,0.1,0.78785896,0.48715544,0.24351624,0.13406153,inf,inf,inf,inf,1,1,1,1,16,85,16,100,4,0,1,1,1,0
631294688,631294188,45936231,42.3585499,-71.08724959999999,0.20115267,-1.66945,4.8568764,47.302635,102.79922,-0.00024282932,-0.031565394,0.0336475,0.012688452,-0.008039795,10.28581,20.871662,-1.5133445,-0.009722182,-0.017869405,0.28745326,3.0276532,0.01443576,5.8792663,0.1,0.78149736,0.4887952,0.24301143,0.13436188,inf,inf,inf,inf,1,1,1,1,16,85,16,100,4,0,1,1,1,0
631792251,631791908,45936231,42.3585499,-71.08724959999999,0.0579941,-1.6078748,4.853226,47.302635,102.79922,-0.00024282932,-0.073176935,0.05798094,0.014470747,-0.0052800127,10.28581,20.871662,-1.5133445,-0.010374449,0.033157934,-0.06574199,3.0276985,0.01443576,5.8792663,0.1,0.8073289,0.49265835,0.2527217,0.13570268,inf,inf,inf,inf,1,1,1,1,16,85,16,100,4,0,1,1,1,0
632290007,632289627,45936231,42.3585499,-71.08724959999999,-0.035682276,-1.6022325,4.8411336,47.302635,102.79922,-0.00024282932,-0.08878222,0.056251068,0.0028318125,-0.021874657,10.28581,20.871662,-1.5133445,-0.04756234,0.044474903,0.10811237,3.0277483,0.01443576,5.8792663,0.1,0.8262932,0.494932,0.257213,0.13625696,inf,inf,inf,inf,1,1,1,1,16,85,16,100,4,0,1,1,1,0
632798221,632797301,45936231,42.3585499,-71.08724959999999,-0.11944225,-1.642409,4.814201,47.302635,102.79922,-0.00024282932,-0.09951058,0.042149577,-0.011542949,-0.043772835,10.28581,20.871662,-1.5133445,0.006338017,0.06811847,-0.061417412,3.0271616,0.01443576,5.8792663,0.1,0.8141553,0.4912658,0.25206152,0.13527441,inf,inf,inf,inf,1,1,1,1,16,85,16,100,4,0,1,1,1,0
633295561,633295020,45936231,42.3585499,-71.08724959999999,-0.15305713,-1.6464144,4.781745,47.302635,102.79922,-0.00024282932,-0.0929905,0.046529774,-0.02163631,-0.058410607,10.28581,20.871662,-1.5133445,0.03705883,0.012860295,-0.06770307,3.0269485,0.01443576,5.8792663,0.10268974,0.79197186,0.48949292,0.24078597,0.13397262,inf,inf,inf,inf,1,1,1,1,16,85,16,100,4,0,1,1,1,0
633793085,633792740,45936231,42.3585499,-71.08724959999999,-0.18221769,-1.6642215,4.7788815,47.302635,102.79922,-0.00024282932,-0.08449382,0.043306958,-0.016545493,-0.0311168,10.28581,20.871662,-1.5133445,-0.02951779,0.009802239,0.023893774,3.0266786,0.01443576,5.8792663,0.11209488,0.8132898,0.49241692,0.24832878,0.13499145,inf,inf,inf,inf,1,1,1,1,16,85,16,100,4,0,1,1,1,0
634300981,634300413,45936231,42.3585499,-71.08724959999999,-0.23845695,-1.7185888,4.775425,47.302635,102.79922,-0.00024282932,-0.08649707,0.028802957,-0.007670068,-0.014462138,10.28581,20.871662,-1.5133445,-0.004328756,0.009753748,0.029459126,3.0260372,0.01443576,5.8792663,0.107978344,0.8048447,0.49422845,0.24616237,0.1351618,inf,inf,inf,inf,1,1,1,1,16,85,16,100,4,0,1,1,1,0
634798543,634798132,45936231,42.3585499,-71.08724959999999,-0.2899855,-1.766344,4.7732983,47.302635,102.79922,-0.00024282932,-0.08708336,0.01774418,-0.00397513,-0.008177281,10.28581,20.871662,-1.5133445,-0.010125591,0.0266583,0.052488253,3.0259254,0.01443576,5.8792663,0.101242065,0.8278499,0.4924382,0.25431576,0.13547418,inf,inf,inf,inf,1,1,1,1,16,85,16,100,4,0,1,1,1,0
635296344,635295850,45936231,42.3585499,-71.08724959999999,-0.3199968,-1.7810314,4.7631154,47.302635,102.79922,-0.00024282932,-0.07540614,0.021428607,-0.00799007,-0.01719909,10.28581,20.871662,-1.5133445,0.008480249,-0.0056217765,-0.108155064,3.0259483,0.01443576,5.8792663,0.1,0.8030165,0.4903192,0.24234949,0.13410546,inf,inf,inf,inf,1,1,1,1,16,85,16,100,4,0,1,1,1,0
635793931,635793569,45936231,42.3585499,-71.08724959999999,-0.4043456,-1.8012284,4.7442126,47.302635,102.79922,-0.00024282932,-0.08564722,0.021782951,-0.024497667,-0.039250575,10.28581,20.871662,-1.5133445,-0.021689376,0.033931203,0.090123646,3.0258083,0.01443576,5.8792663,0.1,0.82454437,0.49328786,0.2504261,0.13519211,inf,inf,inf,inf,1,1,1,1,16,85,16,100,4,0,1,1,1,0
636291785,636291287,45936231,42.3585499,-71.08724959999999,-0.48675236,-1.8035287,4.7298055,47.302635,102.79922,-0.00024282932,-0.091218606,0.029251682,-0.031372298,-0.038568556,10.28581,20.871662,-1.5133445,5.4099317e-05,0.03296653,0.17710173,3.0257328,0.01443576,5.8792663,0.10314703,0.8175809,0.49471346,0.24995498,0.13549325,inf,inf,inf,inf,1,1,1,1,16,85,16,100,4,0,1,1,1,0
636799324,636798960,45936231,42.3585499,-71.08724959999999,-0.5880357,-1.7962339,4.7072835,47.302635,102.79922,-0.00024282932,-0.09878414,0.037623055,-0.032487676,-0.039600622,10.28581,20.871662,-1.5133445,-0.01235123,-0.014392757,-0.112401314,3.0259497,0.01443576,5.8792663,0.108145714,0.8468979,0.49459645,0.26115412,0.1363062,inf,inf,inf,inf,1,1,1,1,16,85,16,100,4,0,1,1,1,0
637297822,637296678,45936231,42.3585499,-71.08724959999999,-0.6175789,-1.835142,4.6957803,47.302635,102.79922,-0.00024282932,-0.08671078,0.023848541,-0.02040132,-0.0239423,10.28581,20.871662,-1.5133445,-0.01833901,-0.000700915,0.012062461,3.0259395,0.01443576,5.8792663,0.10354185,0.84020716,0.4962258,0.2597356,0.13657755,inf,inf,inf,inf,1,1,1,1,16,85,16,100,4,0,1,1,1,0
637794743,637794396,45936231,42.3585499,-71.08724959999999,-0.6077206,-1.8503896,4.6854243,47.302635,102.79922,-0.00024282932,-0.05995706,0.021949489,-0.024179237,-0.027555753,10.28581,20.871662,-1.5133445,0.033433527,-0.02974602,-0.20364079,3.0260334,0.01443576,5.8792663,0.104848385,0.8566917,0.4979644,0.2625286,0.13692424,inf,inf,inf,inf,1,1,1,1,16,85,16,100,4,0,1,1,1,0
638292470,638292113,45936231,42.3585499,-71.08724959999999,-0.63303447,-1.8780303,4.695449,47.302635,102.79922,-0.00024282932,-0.05207394,0.01525123,-0.020016363,-0.0053632637,10.28581,20.871662,-1.5133445,0.028104564,0.045042656,-0.025696428,3.0262063,0.01443576,5.8792663,0.11601925,0.88025737,0.50075674,0.26960203,0.13776834,inf,inf,inf,inf,1,1,1,1,16,85,16,100,4,0,1,1,1,0
638800150,638799785,45936231,42.3585499,-71.08724959999999,-0.7114955,-1.8616439,4.7148046,47.302635,102.79922,-0.00024282932,-0.06110158,0.02771261,-0.024161506,0.0063263727,10.28581,20.871662,-1.5133445,-0.015690474,0.04802611,0.1540726,3.02632,0.01443576,5.8792663,0.11264372,0.8700726,0.49758077,0.26627305,0.1370767,inf,inf,inf,inf,1,1,1,1,16,85,16,100,4,0,1,1,1,0
639297898,639297503,45936231,42.3585499,-71.08724959999999,-0.7423088,-1.8638588,4.7311583,47.302635,102.79922,-0.00024282932,-0.05164435,0.029499942,-0.026106859,0.0142448135,10.28581,20.871662,-1.5133445,0.028407818,-0.020624934,0.008860373,3.0266078,0.01443576,5.8792663,0.10793257,0.8902677,0.49988046,0.2714416,0.13767397,inf,inf,inf,inf,1,1,1,1,16,85,16,100,4,0,1,1,1,0
639795562,639795220,45936231,42.3585499,-71.08724959999999,-0.7463191,-1.8534018,4.7544413,47.302635,102.79922,-0.00024282932,-0.032145657,0.038490005,-0.007347378,0.041071232,10.28581,20.871662,-1.5133445,-0.06831233,0.014422045,-0.1793435,3.0271802,0.01443576,5.8792663,0.10848284,0.858834,0.49761927,0.25651637,0.13618457,inf,inf,inf,inf,1,1,1,1,16,85,16,100,4,0,1,1,1,0
640293290,640292937,45936231,42.3585499,-71.08724959999999,-0.7441731,-1.8979077,4.768428,47.302635,102.79922,-0.00024282932,-0.016628707,0.018092444,0.0050082905,0.04382801,10.28581,20.871662,-1.5133445,0.02331538,-0.07993247,-0.09746497,3.0268378,0.01443576,5.8792663,0.1,0.8420591,0.4930802,0.24075319,0.13380438,inf,inf,inf,inf,1,1,1,1,16,85,16,100,4,0,1,1,1,0
640791126,640790654,45936231,42.3585499,-71.08724959999999,-0.7908987,-1.920523,4.7783165,47.302635,102.79922,-0.00024282932,-0.019798134,0.010725122,0.010738758,0.035280924,10.28581,20.871662,-1.5133445,0.024773475,-0.0048581585,-0.08629134,3.026338,0.01443576,5.8792663,0.1,0.8259203,0.4879602,0.23808464,0.13286729,inf,inf,inf,inf,1,1,1,1,16,85,16,100,4,0,1,1,1,0
641298673,641298325,45936231,42.3585499,-71.08724959999999,-0.8783665,-1.8847226,4.7756906,47.302635,102.79922,-0.00024282932,-0.03864589,0.026847878,0.008575418,0.016586319,10.28581,20.871662,-1.5133445,0.05800456,0.00056311686,-0.26637173,3.0263596,0.01443576,5.8792663,0.1,0.83459306,0.48927426,0.23999561,0.13315079,inf,inf,inf,inf,1,1,1,1,16,85,16,100,4,0,1,1,1,0
641796738,641796042,45936231,42.3585499,-71.08724959999999,-0.90647614,-1.8676903,4.789985,47.302635,102.79922,-0.00024282932,-0.034275487,0.032933366,-0.006415287,0.008878421,10.28581,20.871662,-1.5133445,-0.038753577,0.03445207,0.3145827,3.0260162,0.01443576,5.8792663,0.1,0.79523015,0.48332876,0.22182651,0.13033015,inf,inf,inf,inf,1,1,1,1,16,85,16,100,4,0,1,1,1,0
642294107,642293759,45936231,42.3585499,-71.08724959999999,-0.93926984,-1.8589598,4.7738805,47.302635,102.79922,-0.00024282932,-0.031168273,0.03588256,0.0018011637,-0.0038563926,10.28581,20.871662,-1.5133445,0.0041449782,0.01912728,-0.021968892,3.025542,0.01443576,5.8792663,0.1,0.8063642,0.4851466,0.22879305,0.13139321,inf,inf,inf,inf,1,1,1,1,16,85,16,100,4,0,1,1,1,0
642791965,642791475,45936231,42.3585499,-71.08724959999999,-0.9956718,-1.8352304,4.7546005,47.302635,102.79922,-0.00024282932,-0.04156405,0.042707864,-0.002252898,-0.017404627,10.28581,20.871662,-1.5133445,0.006860481,0.027450422,0.08944775,3.0252728,0.01443576,5.8792663,0.1,0.786318,0.47925565,0.22433667,0.13018584,inf,inf,inf,inf,1,1,1,1,16,85,16,100,4,0,1,1,1,0
643299493,643299146,45936231,42.3585499,-71.08724959999999,-1.0363632,-1.8228605,4.738575,47.302635,102.79922,-0.00024282932,-0.046044834,0.03873971,0.004639556,-0.018758232,10.28581,20.871662,-1.5133445,0.11401619,-0.080054425,-0.18955532,3.0249767,0.01443576,5.8792663,0.1,0.7950801,0.48128477,0.22864206,0.13099982,inf,inf,inf,inf,1,1,1,1,16,85,16,100,4,0,1,1,1,0
643797282,643796862,45936231,42.3585499,-71.08724959999999,-1.0616288,-1.8234376,4.724335,47.302635,102.79922,-0.00024282932,-0.048497893,0.031563118,-0.0002911549,-0.024295596,10.28581,20.871662,-1.5133445,-0.006308474,0.03326385,0.036107313,3.0245216,0.01443576,5.8792663,0.1,0.77808917,0.48077628,0.22583275,0.13081276,inf,inf,inf,inf,1,1,1,1,16,85,16,100,4,0,1,1,1,0
644294923,644294578,45936231,42.3585499,-71.08724959999999,-1.0606954,-1.8414304,4.7131405,47.302635,102.79922,-0.00024282932,-0.038942564,0.020487305,-0.0032526157,-0.026172232,10.28581,20.871662,-1.5133445,0.013285661,-0.005135644,-0.06275552,3.0243871,0.01443576,5.8792663,0.1,0.79131436,0.4833918,0.23321855,0.13208011,inf,inf,inf,inf,1,1,1,1,16,85,16,100,4,0,1,1,1,0
644792644,644792293,45936231,42.3585499,-71.08724959999999,-1.0332642,-1.8721358,4.6981535,47.302635,102.79922,-0.00024282932,-0.020478988,0.010424291,-0.015433702,-0.033124693,10.28581,20.871662,-1.5133445,0.030635405,-0.014674198,0.014935958,3.0243661,0.01443576,5.8792663,0.109014034,0.7781172,0.4793978,0.23180412,0.1315481,inf,inf,inf,inf,1,1,1,1,16,85,16,100,4,0,1,1,1,0
645300392,645299963,45936231,42.3585499,-71.08724959999999,-1.0086379,-1.8788152,4.6947727,47.302635,102.79922,-0.00024282932,-0.011391963,0.0106324535,-0.018457966,-0.024957301,10.28581,20.871662,-1.5133445,-0.018240122,0.006393247,-0.04118741,3.023985,0.01443576,5.8792663,0.10801554,0.79249674,0.48274967,0.237933,0.13271679,inf,inf,inf,inf,1,1,1,1,16,85,16,100,4,0,1,1,1,0
645798077,645797679,45936231,42.3585499,-71.08724959999999,-0.9443723,-1.8885826,4.699466,47.302635,102.79922,-0.00024282932,0.00546351,0.005016731,-0.006228461,0.0005252705,10.28581,20.871662,-1.5133445,0.005215053,0.019812116,0.032266755,3.023551,0.01443576,5.8792663,0.11013508,0.77282053,0.48180977,0.23083192,0.13200404,inf,inf,inf,inf,1,1,1,1,16,85,16,100,4,0,1,1,1,0
646296155,646295394,45936231,42.3585499,-71.08724959999999,-0.90824467,-1.8715351,4.701792,47.302635,102.79922,-0.00024282932,0.0054537305,0.011302621,-0.0046474,0.0010853013,10.28581,20.871662,-1.5133445,0.0068281353,0.015714793,0.038194135,3.0233636,0.01443576,5.8792663,0.1026063,0.78531426,0.47966394,0.23613018,0.13224097,inf,inf,inf,inf,1,1,1,1,16,85,16,100,4,0,1,1,1,0
646793458,646793109,45936231,42.3585499,-71.08724959999999,-0.8360214,-1.8776658,4.718271,47.302635,102.79922,-0.00024282932,0.02035777,0.0055856113,0.0038491758,0.02097675,10.28581,20.871662,-1.5133445,-0.007879443,0.0069167875,0.07795302,3.0228605,0.01443576,5.8792663,0.11198902,0.7581671,0.47677326,0.2234474,0.13051876,inf,inf,inf,inf,1,1,1,1,16,85,16,100,4,0,1,1,1,0
647291371,647290824,45936231,42.3585499,-71.08724959999999,-0.75497985,-1.8620431,4.7372622,47.302635,102.79922,-0.00024282932,0.034003455,0.012650293,0.0022786122,0.023142334,10.28581,20.871662,-1.5133445,-0.00070009555,0.024911031,-0.0037151948,3.022155,0.01443576,5.8792663,0.10167742,0.7312525,0.47293583,0.2107476,0.12841532,inf,inf,inf,inf,1,1,1,1,16,85,16,100,4,0,1,1,1,0
647798898,647798493,45936231,42.3585499,-71.08724959999999,-0.69152373,-1.8191731,4.7410364,47.302635,102.79922,-0.00024282932,0.037648667,0.02684721,0.002716278,0.016384779,10.28581,20.871662,-1.5133445,0.015793914,0.024805065,-0.014220408,3.0207555,0.01443576,5.8792663,0.1,0.7395668,0.47520182,0.21486032,0.1292101,inf,inf,inf,inf,1,1,1,1,16,85,16,100,4,0,1,1,1,0
648296553,648296208,45936231,42.3585499,-71.08724959999999,-0.63828063,-1.7717922,4.737602,47.302635,102.79922,-0.00024282932,0.040010054,0.040618427,-0.0005398987,0.004414077,10.28581,20.871662,-1.5133445,-0.008244083,-0.013692329,-0.008987637,3.0190878,0.01443576,5.8792663,0.1,0.7476612,0.47245947,0.21910267,0.12929821,inf,inf,inf,inf,1,1,1,1,16,85,16,100,4,0,1,1,1,0
648794271,648793922,45936231,42.3585499,-71.08724959999999,-0.58727527,-1.7393817,4.730717,47.302635,102.79922,-0.00024282932,0.03690687,0.044561412,0.0053886743,0.0029182243,10.28581,20.871662,-1.5133445,0.009451274,0.02150018,0.08694027,3.0167947,0.01443576,5.8792663,0.10070133,0.7272941,0.47060317,0.21237747,0.12828244,inf,inf,inf,inf,1,1,1,1,16,85,16,100,4,0,1,1,1,0
649302091,649301591,45936231,42.3585499,-71.08724959999999,-0.5436703,-1.7187085,4.7348175,47.302635,102.79922,-0.00024282932,0.033424146,0.041817393,0.0057831923,0.004792442,10.28581,20.871662,-1.5133445,-0.003227908,0.03627506,-0.019120097,3.0141985,0.01443576,5.8792663,0.102330685,0.7045411,0.46801597,0.20276608,0.12664557,inf,inf,inf,inf,1,1,1,1,16,85,16,100,4,0,1,1,1,0
649789699,649789351,45936231,42.3585499,-71.08724959999999,-0.48049346,-1.687235,4.739289,47.302635,102.79922,-0.00024282932,0.03605244,0.04399082,0.00642025,0.0063350713,10.28581,20.871662,-1.5133445,-0.0019036803,0.03602921,-0.02420242,3.0114777,0.01443576,5.8792663,0.1,0.71229917,0.46948996,0.20877281,0.12770368,inf,inf,inf,inf,1,1,1,1,16,85,16,100,4,0,1,1,1,0
650297364,650297019,45936231,42.3585499,-71.08724959999999,-0.39285856,-1.6484461,4.7361197,47.302635,102.79922,-0.00024282932,0.052904475,0.04836836,0.002542482,-0.001375771,10.28581,20.871662,-1.5133445,-0.018704832,0.014560013,-0.0031178908,3.0085535,0.01443576,5.8792663,0.1,0.7254871,0.4693572,0.21716821,0.12880683,inf,inf,inf,inf,1,1,1,1,16,85,16,100,4,0,1,1,1,0
650795378,650794733,45936231,42.3585499,-71.08724959999999,-0.30187303,-1.6251216,4.750867,47.302635,102.79922,-0.00024282932,0.06166756,0.041618265,0.016869526,0.022121945,10.28581,20.871662,-1.5133445,0.0018809196,0.0149535,-0.0061830035,3.005608,0.01443576,5.8792663,0.1,0.7060614,0.4678172,0.2108679,0.12791644,inf,inf,inf,inf,1,1,1,1,16,85,16,100,4,0,1,1,1,0
651292798,651292446,45936231,42.3585499,-71.08724959999999,-0.20955501,-1.6169319,4.7487245,47.302635,102.79922,-0.00024282932,0.067674056,0.031919546,0.013080182,0.007114846,10.28581,20.871662,-1.5133445,-0.042410377,0.014119199,0.028027993,3.0027184,0.01443576,5.8792663,0.1,0.71663153,0.47051117,0.21697237,0.12912288,inf,inf,inf,inf,1,1,1,1,16,85,16,100,4,0,1,1,1,0
651800487,651800114,45936231,42.3585499,-71.08724959999999,-0.1308868,-1.5848749,4.7373343,47.302635,102.79922,-0.00024282932,0.06913337,0.03406902,0.015550757,-0.003576302,10.28581,20.871662,-1.5133445,-0.009507071,-0.0027256787,0.011215158,2.999681,0.01443576,5.8792663,0.1,0.7057468,0.46802464,0.21579412,0.12880999,inf,inf,inf,inf,1,1,1,1,16,85,16,100,4,0,1,1,1,0
652298265,652297828,45936231,42.3585499,-71.08724959999999,-0.08267575,-1.5877695,4.7263145,47.302635,102.79922,-0.00024282932,0.057976376,0.021050386,0.0024242552,-0.020560367,10.28581,20.871662,-1.5133445,0.0003425223,0.009212822,-0.052344464,2.9959607,0.01443576,5.8792663,0.1,0.69832605,0.46475473,0.20669335,0.12696049,inf,inf,inf,inf,1,1,1,1,16,85,16,100,4,0,1,1,1,0
652795924,652795541,45936231,42.3585499,-71.08724959999999,-0.07734902,-1.547018,4.7098827,47.302635,102.79922,-0.00024282932,0.029552197,0.028877081,0.0068861446,-0.020027347,10.28581,20.871662,-1.5133445,-0.0016898982,0.006666599,-0.016403038,2.991327,0.01443576,5.8792663,0.102602005,0.6768064,0.4619314,0.198908,0.12549,inf,inf,inf,inf,1,1,1,1,16,85,16,100,4,0,1,1,1,0
653293622,653293254,45936231,42.3585499,-71.08724959999999,-0.054962453,-1.486724,4.709252,47.302635,102.79922,-0.00024282932,0.01784036,0.04149226,0.008069915,-0.010501107,10.28581,20.871662,-1.5133445,-0.008249865,0.005882045,0.00021144238,2.986088,0.01443576,5.8792663,0.10031557,0.6878507,0.4651633,0.20694551,0.12713082,inf,inf,inf,inf,1,1,1,1,16,85,16,100,4,0,1,1,1,0
653791366,653790967,45936231,42.3585499,-71.08724959999999,0.004552154,-1.4423461,4.7170773,47.302635,102.79922,-0.00024282932,0.022501346,0.0426621,0.022452686,0.010491481,10.28581,20.871662,-1.5133445,-0.01548501,0.0042690895,-0.014708431,2.9806118,0.01443576,5.8792663,0.1,0.6713671,0.46413693,0.20255624,0.12650393,inf,inf,inf,inf,1,1,1,1,16,85,16,100,4,0,1,1,1,0
654299000,654298634,45936231,42.3585499,-71.08724959999999,0.063098885,-1.4008514,4.7166705,47.302635,102.79922,-0.00024282932,0.024084926,0.045380227,0.010754166,-0.002614917,10.28581,20.871662,-1.5133445,-0.011710577,0.010575164,-0.018706925,2.975029,0.01443576,5.8792663,0.1,0.68501616,0.464469,0.21097794,0.12774661,inf,inf,inf,inf,1,1,1,1,16,85,16,100,4,0,1,1,1,0
654796692,654796346,45936231,42.3585499,-71.08724959999999,0.057103973,-1.341204,4.692939,47.302635,102.79922,-0.00024282932,0.00068676803,0.056525975,0.0025057604,-0.026521407,10.28581,20.871662,-1.5133445,0.0037707798,0.0038730935,0.04065296,2.969338,0.01443576,5.8792663,0.1,0.67412454,0.46543184,0.20975119,0.12792319,inf,inf,inf,inf,1,1,1,1,16,85,16,100,4,0,1,1,1,0
655294752,655294058,45936231,42.3585499,-71.08724959999999,0.060472667,-1.3024122,4.664296,47.302635,102.79922,-0.00024282932,-0.0074202665,0.053911347,-0.003140227,-0.040925346,10.28581,20.871662,-1.5133445,-0.025273139,0.0269837,0.047413424,2.9636085,0.01443576,5.8792663,0.1,0.6970846,0.47171283,0.2236553,0.13069057,inf,inf,inf,inf,1,1,1,1,16,85,16,100,4,0,1,1,1,0
655792196,655791771,45936231,42.3585499,-71.08724959999999,0.078659065,-1.2661122,4.650258,47.302635,102.79922,-0.00024282932,-0.0077578994,0.051897228,-0.0009501358,-0.032776807,10.28581,20.871662,-1.5133445,-0.0215432,0.031840593,0.014741348,2.9581885,0.01443576,5.8792663,0.105614185,0.6985583,0.4762529,0.22932805,0.13230136,inf,inf,inf,inf,1,1,1,1,16,85,16,100,4,0,1,1,1,0
656299785,656299437,45936231,42.3585499,-71.08724959999999,0.1389313,-1.2674356,4.6486874,47.302635,102.79922,-0.00024282932,0.010064357,0.037281103,0.004361657,-0.015706928,10.28581,20.871662,-1.5133445,-0.012043206,0.035446245,-0.0026493291,2.9529016,0.01443576,5.8792663,0.10422468,0.70455,0.47329512,0.22562972,0.13129064,inf,inf,inf,inf,1,1,1,1,16,85,16,100,4,0,1,1,1,0
656797489,656797149,45936231,42.3585499,-71.08724959999999,0.16626175,-1.2631377,4.6522226,47.302635,102.79922,-0.00024282932,0.0072220275,0.029762475,-0.0030197848,-0.012728575,10.28581,20.871662,-1.5133445,-0.010915057,-0.00036213518,0.0032061958,2.947712,0.01443576,5.8792663,0.1,0.6873763,0.4721451,0.21661331,0.13006172,inf,inf,inf,inf,1,1,1,1,16,85,16,100,4,0,1,1,1,0
657295211,657294860,45936231,42.3585499,-71.08724959999999,0.19506207,-1.2434251,4.633191,47.302635,102.79922,-0.00024282932,0.010633363,0.030294096,-0.007000803,-0.027496412,10.28581,20.871662,-1.5133445,0.008081626,0.02627609,0.026406739,2.9426887,0.01443576,5.8792663,0.1,0.69644994,0.47349405,0.21793662,0.13024434,inf,inf,inf,inf,1,1,1,1,16,85,16,100,4,0,1,1,1,0
657792948,657792572,45936231,42.3585499,-71.08724959999999,0.20086454,-1.1745093,4.6238017,47.302635,102.79922,-0.00024282932,0.0015965714,0.0486555,-0.005810731,-0.021468129,10.28581,20.871662,-1.5133445,-0.011026665,-0.0070799566,-0.0050258203,2.9375813,0.01443576,5.8792663,0.108766556,0.6871555,0.4700372,0.21587439,0.129535,inf,inf,inf,inf,1,1,1,1,16,85,16,100,4,0,1,1,1,0
658300619,658300237,45936231,42.3585499,-71.08724959999999,0.17965275,-1.1066911,4.623714,47.302635,102.79922,-0.00024282932,-0.0151388915,0.06221417,0.0017019981,-0.0073378473,10.28581,20.871662,-1.5133445,0.01007392,-0.007777008,5.0514624e-05,2.9324555,0.01443576,5.8792663,0.10388136,0.708579,0.47525406,0.22529246,0.13133863,inf,inf,inf,inf,1,1,1,1,16,85,16,100,4,0,1,1,1,0
658798372,658797949,45936231,42.3585499,-71.08724959999999,0.15057303,-1.0383713,4.6187873,47.302635,102.79922,-0.00024282932,-0.032571957,0.074193366,-0.002117104,-0.0120649105,10.28581,20.871662,-1.5133445,-0.025471583,0.017553804,0.020616746,2.9276884,0.01443576,5.8792663,0.1,0.7016559,0.47689977,0.22415936,0.1315495,inf,inf,inf,inf,1,1,1,1,16,85,16,100,4,0,1,1,1,0
659296037,659295660,45936231,42.3585499,-71.08724959999999,0.13333243,-0.9867449,4.6096416,47.302635,102.79922,-0.00024282932,-0.04367642,0.077249445,-0.0038153406,-0.015090022,10.28581,20.871662,-1.5133445,-0.036162965,0.009022524,0.0011558826,2.923321,0.01443576,5.8792663,0.10592461,0.7058622,0.47676578,0.22096467,0.13092344,inf,inf,inf,inf,1,1,1,1,16,85,16,100,4,0,1,1,1,0
659794200,659793370,45936231,42.3585499,-71.08724959999999,0.14368321,-0.94170964,4.6126833,47.302635,102.79922,-0.00024282932,-0.04096376,0.0792564,-0.0019217983,-0.005615521,10.28581,20.871662,-1.5133445,0.03126735,0.0039617675,0.006390319,2.9189937,0.01443576,5.8792663,0.101018906,0.6928581,0.47226554,0.2167908,0.12977554,inf,inf,inf,inf,1,1,1,1,16,85,16,100,4,0,1,1,1,0
660291545,660291084,45936231,42.3585499,-71.08724959999999,0.15157618,-0.8833606,4.6190734,47.302635,102.79922,-0.00024282932,-0.043287165,0.0851934,0.0019832961,0.00384607,10.28581,20.871662,-1.5133445,-0.026928386,0.0058894455,0.03269916,2.9147317,0.01443576,5.8792663,0.1,0.708341,0.47524363,0.22313553,0.13085127,inf,inf,inf,inf,1,1,1,1,16,85,16,100,4,0,1,1,1,0
660799117,660798746,45936231,42.3585499,-71.08724959999999,0.16214532,-0.8667811,4.6189423,47.302635,102.79922,-0.00024282932,-0.04199436,0.06941086,0.0030719363,0.0026297253,10.28581,20.871662,-1.5133445,-0.016175937,-0.008717941,-0.035781734,2.9104187,0.01443576,5.8792663,0.106752396,0.6861924,0.473062,0.2126542,0.12921144,inf,inf,inf,inf,1,1,1,1,16,85,16,100,4,0,1,1,1,0
661296806,661296456,45936231,42.3585499,-71.08724959999999,0.16246425,-0.80959934,4.617148,47.302635,102.79922,-0.00024282932,-0.049483735,0.07566344,0.009851988,0.0049292585,10.28581,20.871662,-1.5133445,0.017411806,-0.00051922275,-0.0059502195,2.9062853,0.01443576,5.8792663,0.1,0.7077177,0.4779267,0.22410063,0.13129817,inf,inf,inf,inf,1,1,1,1,16,85,16,100,4,0,1,1,1,0
661794569,661794166,45936231,42.3585499,-71.08724959999999,0.082048655,-0.6936157,4.60633,47.302635,102.79922,-0.00024282932,-0.08751375,0.10457138,8.2287115e-06,-0.012793395,10.28581,20.871662,-1.5133445,-0.027776271,0.023972858,0.05338122,2.9023602,0.01443576,5.8792663,0.1,0.7129149,0.47830328,0.23252195,0.13251111,inf,inf,inf,inf,1,1,1,1,16,85,16,100,4,0,1,1,1,0
662292259,662291876,45936231,42.3585499,-71.08724959999999,0.05954074,-0.62492406,4.601755,47.302635,102.79922,-0.00024282932,-0.08635378,0.108034745,0.0005403265,-0.011301119,10.28581,20.871662,-1.5133445,-0.036397148,0.019595161,0.015123083,2.8986938,0.01443576,5.8792663,0.1,0.7273263,0.4805946,0.23507966,0.13300209,inf,inf,inf,inf,1,1,1,1,16,85,16,100,4,0,1,1,1,0
662799884,662799540,45936231,42.3585499,-71.08724959999999,0.024714086,-0.56003565,4.596574,47.302635,102.79922,-0.00024282932,-0.09358775,0.107425265,0.0037487654,-0.0081717335,10.28581,20.871662,-1.5133445,-0.03263776,0.011509853,-0.015406034,2.894718,0.01443576,5.8792663,0.10197449,0.7357079,0.48624757,0.24255934,0.13479592,inf,inf,inf,inf,1,1,1,1,16,85,16,100,4,0,1,1,1,0
663297745,663297250,45936231,42.3585499,-71.08724959999999,-0.03408617,-0.4746142,4.588725,47.302635,102.79922,-0.00024282932,-0.11282073,0.117970906,0.003231866,-0.01255411,10.28581,20.871662,-1.5133445,-0.023918089,0.019800646,-0.030688183,2.8909066,0.01443576,5.8792663,0.1,0.7438561,0.49102604,0.24889632,0.13630176,inf,inf,inf,inf,1,1,1,1,16,85,16,100,4,0,1,1,1,0
663795334,663794959,45936231,42.3585499,-71.08724959999999,-0.08498621,-0.38807315,4.5754466,47.302635,102.79922,-0.00024282932,-0.12308935,0.12667893,-0.0021447071,-0.021400947,10.28581,20.871662,-1.5133445,-0.011212837,0.007974023,-0.02963654,2.887408,0.01443576,5.8792663,0.100869656,0.7755611,0.4912694,0.25948462,0.13707618,inf,inf,inf,inf,1,1,1,1,16,85,16,100,4,0,1,1,1,0
664293036,664292669,45936231,42.3585499,-71.08724959999999,-0.114027336,-0.31323045,4.564231,47.302635,102.79922,-0.00024282932,-0.12104954,0.12914948,-0.006701753,-0.025697002,10.28581,20.871662,-1.5133445,-0.030014532,0.019325553,-0.039242055,2.8839674,0.01443576,5.8792663,0.1,0.8149639,0.49703893,0.27311024,0.13885012,inf,inf,inf,inf,1,1,1,1,16,85,16,100,4,0,1,1,1,0
664790753,664790378,45936231,42.3585499,-71.08724959999999,-0.23194326,-0.17392549,4.557997,47.302635,102.79922,-0.00024282932,-0.15696208,0.15527464,-0.0017942506,-0.01400119,10.28581,20.871662,-1.5133445,-0.024605192,0.005260057,0.056820583,2.8805916,0.01443576,5.8792663,0.10429382,0.8242494,0.50141317,0.277069,0.13987027,inf,inf,inf,inf,1,1,1,1,16,85,16,100,4,0,1,1,1,0
665298433,665298041,45936231,42.3585499,-71.08724959999999,-0.21706805,-0.116538905,4.5584917,47.302635,102.79922,-0.00024282932,-0.12330498,0.14171393,3.724281e-05,-0.006875305,10.28581,20.871662,-1.5133445,-0.010046149,0.0025105565,0.025638027,2.8780854,0.01443576,5.8792663,0.106360435,0.797603,0.49656788,0.2496365,0.13637477,inf,inf,inf,inf,1,1,1,1,16,85,16,100,4,0,1,1,1,0
665796092,665795750,45936231,42.3585499,-71.08724959999999,-0.10948714,-0.12434387,4.561917,47.302635,102.79922,-0.00024282932,-0.07217258,0.11024393,0.010201729,0.006204398,10.28581,20.871662,-1.5133445,-0.012808702,0.004983081,0.028199399,2.8774483,0.01443576,5.8792663,0.104934216,0.7971211,0.49391043,0.25082013,0.13603836,inf,inf,inf,inf,1,1,1,1,16,85,16,100,4,0,1,1,1,0
666293808,666293459,45936231,42.3585499,-71.08724959999999,-0.047780212,-0.13985524,4.5678983,47.302635,102.79922,-0.00024282932,-0.050372537,0.08266467,0.0053721266,0.00398328,10.28581,20.871662,-1.5133445,-0.020640593,0.008104181,0.004450871,2.8774366,0.01443576,5.8792663,0.10460234,0.81465995,0.49557412,0.253668,0.13623941,inf,inf,inf,inf,1,1,1,1,16,85,16,100,4,0,1,1,1,0
666801466,666801121,45936231,42.3585499,-71.08724959999999,-0.041691016,-0.11472634,4.572341,47.302635,102.79922,-0.00024282932,-0.042820312,0.074404195,-0.004113344,-0.003002184,10.28581,20.871662,-1.5133445,0.0055459123,-0.0050610215,-0.01793522,2.877547,0.01443576,5.8792663,0.1,0.79555756,0.4952239,0.24489036,0.13533919,inf,inf,inf,inf,1,1,1,1,16,85,16,100,4,0,1,1,1,0
667289261,667288875,45936231,42.3585499,-71.08724959999999,-0.08224125,-0.07540103,4.575574,47.302635,102.79922,-0.00024282932,-0.05386779,0.071145885,-0.0066477037,0.0009870646,10.28581,20.871662,-1.5133445,0.001715806,-0.007875208,0.0074509457,2.8784757,0.01443576,5.8792663,0.109401226,0.81902564,0.49753633,0.2535768,0.13629161,inf,inf,inf,inf,1,1,1,1,16,85,16,100,4,0,1,1,1,0
667796901,667796538,45936231,42.3585499,-71.08724959999999,-0.0752271,-0.06583851,4.5889935,47.302635,102.79922,-0.00024282932,-0.044241924,0.05643563,0.0069424557,0.021524122,10.28581,20.871662,-1.5133445,-0.01994672,0.018097378,0.13873719,2.8791475,0.01443576,5.8792663,0.103726864,0.80576736,0.493674,0.24923226,0.13535225,inf,inf,inf,inf,1,1,1,1,16,85,16,100,4,0,1,1,1,0
668294592,668294245,45936231,42.3585499,-71.08724959999999,-0.04242821,-0.07454317,4.5875473,47.302635,102.79922,-0.00024282932,-0.027057085,0.03772917,0.015361158,0.016703347,10.28581,20.871662,-1.5133445,0.0081589995,-0.0034067552,-0.0047660903,2.881099,0.01443576,5.8792663,0.1,0.8076089,0.49253094,0.2448087,0.13453037,inf,inf,inf,inf,1,1,1,1,16,85,16,100,4,0,1,1,1,0
668792313,668791953,45936231,42.3585499,-71.08724959999999,-0.02941986,-0.09299608,4.590469,47.302635,102.79922,-0.00024282932,-0.023819966,0.020257223,0.013122157,0.011263627,10.28581,20.871662,-1.5133445,-0.0007695091,-0.010637075,-0.003590195,2.883568,0.01443576,5.8792663,0.1,0.79003656,0.49172136,0.2390826,0.13392793,inf,inf,inf,inf,1,1,1,1,16,85,16,100,4,0,1,1,1,0
669300034,669299615,45936231,42.3585499,-71.08724959999999,0.0041833655,-0.109870076,4.5967813,47.302635,102.79922,-0.00024282932,-0.012927344,0.0072471257,0.0030411952,0.00420637,10.28581,20.871662,-1.5133445,-0.018537397,-0.024145074,0.007208431,2.8856895,0.01443576,5.8792663,0.10133791,0.80904174,0.48995876,0.24608251,0.13418616,inf,inf,inf,inf,1,1,1,1,16,85,16,100,4,0,1,1,1,0
669797704,669797322,45936231,42.3585499,-71.08724959999999,0.041000176,-0.12645312,4.607509,47.302635,102.79922,-0.00024282932,-0.0007918854,-0.0043857754,0.004261308,0.0123367645,10.28581,20.871662,-1.5133445,0.018853582,-0.022179455,0.023742823,2.887626,0.01443576,5.8792663,0.1,0.8021894,0.49143344,0.24726039,0.13467972,inf,inf,inf,inf,1,1,1,1,16,85,16,100,4,0,1,1,1,0
670295397,670295029,45936231,42.3585499,-71.08724959999999,0.080558196,-0.1382681,4.6089616,47.302635,102.79922,-0.00024282932,0.012253792,-0.014843652,0.012317042,0.01352358,10.28581,20.871662,-1.5133445,-0.002065105,-0.070417345,-0.010044521,2.8899877,0.01443576,5.8792663,0.1,0.8221419,0.49398738,0.254237,0.1356195,inf,inf,inf,inf,1,1,1,1,16,85,16,100,4,0,1,1,1,0
670793084,670792737,45936231,42.3585499,-71.08724959999999,0.09890593,-0.12398827,4.622678,47.302635,102.79922,-0.00024282932,0.0080563715,-0.012592823,0.024331842,0.027948588,10.28581,20.871662,-1.5133445,-0.001481417,-0.03751178,0.013475234,2.8921597,0.01443576,5.8792663,0.1,0.8056784,0.4939011,0.24895851,0.13529713,inf,inf,inf,inf,1,1,1,1,16,85,16,100,4,0,1,1,1,0
671290792,671290443,45936231,42.3585499,-71.08724959999999,0.13150457,-0.08408417,4.626355,47.302635,102.79922,-0.00024282932,0.0122329835,0.0033071968,0.015438734,0.011307473,10.28581,20.871662,-1.5133445,0.013159943,0.042080402,0.021057202,2.8940701,0.01443576,5.8792663,0.1,0.78376675,0.48757192,0.23021202,0.13221209,inf,inf,inf,inf,1,1,1,1,16,85,16,100,4,0,1,1,1,0
671798504,671798104,45936231,42.3585499,-71.08724959999999,0.18185264,-0.104552485,4.6312337,47.302635,102.79922,-0.00024282932,0.025795465,-0.0040225172,0.011787463,0.008035378,10.28581,20.871662,-1.5133445,0.01153362,-0.014535282,0.010187466,2.8961587,0.01443576,5.8792663,0.102683544,0.76040435,0.48106223,0.22172624,0.13036487,inf,inf,inf,inf,1,1,1,1,16,85,16,100,4,0,1,1,1,0
672296169,672295810,45936231,42.3585499,-71.08724959999999,0.15467103,-0.1033868,4.638751,47.302635,102.79922,-0.00024282932,0.008861701,-0.0020231567,0.00676315,0.0076390645,10.28581,20.871662,-1.5133445,-0.013134895,-0.021503475,0.015926225,2.8980513,0.01443576,5.8792663,0.1,0.76239413,0.4803129,0.22127528,0.13011757,inf,inf,inf,inf,1,1,1,1,16,85,16,100,4,0,1,1,1,0
672793859,672793517,45936231,42.3585499,-71.08724959999999,0.11110177,-0.113404475,4.638164,47.302635,102.79922,-0.00024282932,-0.017207652,-0.004876278,0.017416071,0.011812248,10.28581,20.871662,-1.5133445,-0.034543343,-0.010643542,0.029214367,2.8997135,0.01443576,5.8792663,0.1,0.7491947,0.48074812,0.22180273,0.1304705,inf,inf,inf,inf,1,1,1,1,16,85,16,100,4,0,1,1,1,0
673301527,673301177,45936231,42.3585499,-71.08724959999999,0.12045324,-0.14850296,4.6328726,47.302635,102.79922,-0.00024282932,-0.017251965,-0.017493263,0.017176207,0.0018692965,10.28581,20.871662,-1.5133445,-0.0042072777,0.006591236,-0.02679972,2.901681,0.01443576,5.8792663,0.1,0.75455314,0.47722465,0.22327758,0.13009533,inf,inf,inf,inf,1,1,1,1,16,85,16,100,4,0,1,1,1,0
673799285,673798883,45936231,42.3585499,-71.08724959999999,0.12575564,-0.1888793,4.6139545,47.302635,102.79922,-0.00024282932,-0.019273119,-0.024959749,0.0005802873,-0.025330316,10.28581,20.871662,-1.5133445,-0.00019842303,-0.013848965,0.029492809,2.9034863,0.01443576,5.8792663,0.1,0.73818475,0.4768984,0.22125217,0.13002013,inf,inf,inf,inf,1,1,1,1,16,85,16,100,4,0,1,1,1,0
674297002,674296589,45936231,42.3585499,-71.08724959999999,0.1461597,-0.23593235,4.6039615,47.302635,102.79922,-0.00024282932,-0.012567563,-0.0377996,-0.005026855,-0.026434623,10.28581,20.871662,-1.5133445,-0.006095193,0.013054052,0.0008544049,2.9050994,0.01443576,5.8792663,0.100997925,0.7512859,0.47976315,0.22859634,0.13136859,inf,inf,inf,inf,1,1,1,1,16,85,16,100,4,0,1,1,1,0
674794658,674794294,45936231,42.3585499,-71.08724959999999,0.15283142,-0.26872012,4.593699,47.302635,102.79922,-0.00024282932,-0.014380746,-0.04121422,-0.001720856,-0.020413563,10.28581,20.871662,-1.5133445,-0.026986923,-0.012487707,0.035558663,2.9069662,0.01443576,5.8792663,0.10092211,0.72925544,0.4781399,0.22033358,0.13038589,inf,inf,inf,inf,1,1,1,1,16,85,16,100,4,0,1,1,1,0
675292406,675292000,45936231,42.3585499,-71.08724959999999,0.17372383,-0.29760852,4.6035843,47.302635,102.79922,-0.00024282932,-0.01431561,-0.043735664,0.004028617,0.00012549537,10.28581,20.871662,-1.5133445,-0.031223554,0.00046713467,0.008343044,2.9088578,0.01443576,5.8792663,0.11040068,0.7368059,0.4750292,0.22326568,0.13027188,inf,inf,inf,inf,1,1,1,1,16,85,16,100,4,0,1,1,1,0
675800005,675799659,45936231,42.3585499,-71.08724959999999,0.22669995,-0.35685834,4.6069446,47.302635,102.79922,-0.00024282932,-0.004922864,-0.052770883,-0.00027690528,-0.0010733966,10.28581,20.871662,-1.5133445,0.015189453,-0.036941912,0.008665763,2.909972,0.01443576,5.8792663,0.10567856,0.7182454,0.47458386,0.21690042,0.12958948,inf,inf,inf,inf,1,1,1,1,16,85,16,100,4,0,1,1,1,0
676297734,676297367,45936231,42.3585499,-71.08724959999999,0.28828168,-0.3875889,4.608512,47.302635,102.79922,-0.00024282932,0.005120501,-0.046957195,-0.006197135,-0.0043491498,10.28581,20.871662,-1.5133445,-0.0045312415,0.011923652,-0.033768844,2.9108112,0.01443576,5.8792663,0.1032691,0.7088977,0.47032642,0.20742074,0.12752181,inf,inf,inf,inf,1,1,1,1,16,85,16,100,4,0,1,1,1,0
676795415,676795069,45936231,42.3585499,-71.08724959999999,0.36383405,-0.4153242,4.6180434,47.302635,102.79922,-0.00024282932,0.012136217,-0.037030604,0.0068942853,0.015032822,10.28581,20.871662,-1.5133445,-0.017201118,-0.0019802882,0.110893294,2.911932,0.01443576,5.8792663,0.100934505,0.69725126,0.47095895,0.20825727,0.12792023,inf,inf,inf,inf,1,1,1,1,16,85,16,100,4,0,1,1,1,0
677293144,677292773,45936231,42.3585499,-71.08724959999999,0.42714018,-0.453069,4.619436,47.302635,102.79922,-0.00024282932,0.014205756,-0.03427072,0.011402665,0.012021453,10.28581,20.871662,-1.5133445,-0.004920838,0.0070389556,0.023211388,2.9130294,0.01443576,5.8792663,0.1,0.7117068,0.47042465,0.21752906,0.12911503,inf,inf,inf,inf,1,1,1,1,16,85,16,100,4,0,1,1,1,0
677790958,677790478,45936231,42.3585499,-71.08724959999999,0.5216649,-0.51973546,4.6193757,47.302635,102.79922,-0.00024282932,0.025060937,-0.04206241,0.008105348,0.0037853804,10.28581,20.871662,-1.5133445,-0.0029033148,-0.01493523,0.021219626,2.9146698,0.01443576,5.8792663,0.1,0.7056456,0.47307926,0.22093342,0.13020639,inf,inf,inf,inf,1,1,1,1,16,85,16,100,4,0,1,1,1,0
678298582,678298136,45936231,42.3585499,-71.08724959999999,0.6660755,-0.62079084,4.6163564,47.302635,102.79922,-0.00024282932,0.05302828,-0.05702452,-0.00416256,-0.009913496,10.28581,20.871662,-1.5133445,0.025299674,-0.012769604,-0.0263349,2.9165924,0.01443576,5.8792663,0.100002766,0.7110454,0.47437274,0.22010478,0.13023008,inf,inf,inf,inf,1,1,1,1,16,85,16,100,4,0,1,1,1,0
678796262,678795840,45936231,42.3585499,-71.08724959999999,0.8010858,-0.70177746,4.61034,47.302635,102.79922,-0.00024282932,0.072882116,-0.06079919,-0.0032925063,-0.011438625,10.28581,20.871662,-1.5133445,-0.0013209891,0.0005778306,0.08783323,2.9183898,0.01443576,5.8792663,0.1,0.7011365,0.47582746,0.2197059,0.13060375,inf,inf,inf,inf,1,1,1,1,16,85,16,100,4,0,1,1,1,0
679293916,679293544,45936231,42.3585499,-71.08724959999999,0.88152874,-0.73203003,4.606062,47.302635,102.79922,-0.00024282932,0.07007913,-0.04783536,0.010623374,0.0030059556,10.28581,20.871662,-1.5133445,-0.005522013,0.0020433431,-0.02551604,2.919993,0.01443576,5.8792663,0.100862026,0.6966048,0.4690755,0.21136676,0.12837806,inf,inf,inf,inf,1,1,1,1,16,85,16,100,4,0,1,1,1,0
679791700,679791248,45936231,42.3585499,-71.08724959999999,0.9490616,-0.7732812,4.609147,47.302635,102.79922,-0.00024282932,0.06307824,-0.042431243,0.003034125,0.00082340837,10.28581,20.871662,-1.5133445,-0.0073118983,-0.0024534012,0.03220313,2.9215803,0.01443576,5.8792663,0.1,0.67994285,0.46777937,0.20677598,0.12763225,inf,inf,inf,inf,1,1,1,1,16,85,16,100,4,0,1,1,1,0
680299282,680298905,45936231,42.3585499,-71.08724959999999,1.0508419,-0.83340824,4.611014,47.302635,102.79922,-0.00024282932,0.07256102,-0.043459345,0.00036654214,7.950197e-05,10.28581,20.871662,-1.5133445,-0.01919558,0.007778535,-0.03379596,2.9232693,0.01443576,5.8792663,0.104138374,0.69581175,0.47226512,0.21552502,0.12941903,inf,inf,inf,inf,1,1,1,1,16,85,16,100,4,0,1,1,1,0
680796957,680796609,45936231,42.3585499,-71.08724959999999,1.1477846,-0.8676704,4.6226187,47.302635,102.79922,-0.00024282932,0.072961755,-0.03475838,0.0076129,0.014310576,10.28581,20.871662,-1.5133445,-0.043704588,-0.015324388,-0.031920966,2.9246466,0.01443576,5.8792663,0.10380459,0.6794549,0.4712078,0.20951135,0.1285864,inf,inf,inf,inf,1,1,1,1,16,85,16,100,4,0,1,1,1,0
681294661,681294312,45936231,42.3585499,-71.08724959999999,1.2485266,-0.8777945,4.636542,47.302635,102.79922,-0.00024282932,0.066305056,-0.017894398,0.01566028,0.025622115,10.28581,20.871662,-1.5133445,-0.015942933,0.040863726,0.05022554,2.9263334,0.01443576,5.8792663,0.1,0.69474757,0.47062728,0.21761174,0.12953436,inf,inf,inf,inf,1,1,1,1,16,85,16,100,4,0,1,1,1,0
681792360,681792015,45936231,42.3585499,-71.08724959999999,1.331687,-0.91767496,4.642864,47.302635,102.79922,-0.00024282932,0.060416486,-0.01663628,0.012481667,0.019224979,10.28581,20.871662,-1.5133445,-0.00891896,0.0067467983,0.028255537,2.9279196,0.01443576,5.8792663,0.100132465,0.68380094,0.47144204,0.21561815,0.1295702,inf,inf,inf,inf,1,1,1,1,16,85,16,100,4,0,1,1,1,0
682300020,682299672,45936231,42.3585499,-71.08724959999999,1.4548329,-0.99136645,4.6439004,47.302635,102.79922,-0.00024282932,0.07876753,-0.03156654,0.017378194,0.014111147,10.28581,20.871662,-1.5133445,-0.0035942346,0.0023973875,0.03545986,2.9290423,0.01443576,5.8792663,0.1,0.70402044,0.47688627,0.22552659,0.1315655,inf,inf,inf,inf,1,1,1,1,16,85,16,100,4,0,1,1,1,0
682797841,682797375,45936231,42.3585499,-71.08724959999999,1.5615615,-1.0317885,4.641389,47.302635,102.79922,-0.00024282932,0.082890734,-0.029134938,0.015518056,0.003934892,10.28581,20.871662,-1.5133445,-0.026156195,0.0019556473,-0.028987588,2.930431,0.01443576,5.8792663,0.1,0.6869878,0.47162086,0.21800569,0.12997337,inf,inf,inf,inf,1,1,1,1,16,85,16,100,4,0,1,1,1,0
683295504,683295077,45936231,42.3585499,-71.08724959999999,1.61569,-1.0518887,4.6313543,47.302635,102.79922,-0.00024282932,0.062126655,-0.020402847,0.009539934,-0.009281229,10.28581,20.871662,-1.5133445,-0.012056942,0.021731187,-0.0032009743,2.931931,0.01443576,5.8792663,0.1,0.70577615,0.47576907,0.22675285,0.13156699,inf,inf,inf,inf,1,1,1,1,16,85,16,100,4,0,1,1,1,0
683793121,683792780,45936231,42.3585499,-71.08724959999999,1.6611005,-1.0778186,4.6105075,47.302635,102.79922,-0.00024282932,0.05435982,-0.016815582,0.003799539,-0.026092108,10.28581,20.871662,-1.5133445,-0.020803468,0.014258278,0.02368444,2.9331586,0.01443576,5.8792663,0.1,0.69337255,0.47634298,0.22245145,0.13127406,inf,inf,inf,inf,1,1,1,1,16,85,16,100,4,0,1,1,1,0
684300784,684300436,45936231,42.3585499,-71.08724959999999,1.7250702,-1.0812435,4.6075473,47.302635,102.79922,-0.00024282932,0.049974706,-0.0037241601,0.010661953,-0.010512657,10.28581,20.871662,-1.5133445,-0.033348724,0.012099437,0.02237606,2.9345307,0.01443576,5.8792663,0.1,0.7071938,0.47952715,0.22639292,0.13206,inf,inf,inf,inf,1,1,1,1,16,85,16,100,4,0,1,1,1,0
684798559,684798138,45936231,42.3585499,-71.08724959999999,1.7754217,-1.0784315,4.5953026,47.302635,102.79922,-0.00024282932,0.032270838,0.010755152,0.0053754165,-0.019862106,10.28581,20.871662,-1.5133445,-0.04523495,0.056816317,-0.010749609,2.9359443,0.01443576,5.8792663,0.1,0.6677505,0.4668512,0.20303991,0.12701102,inf,inf,inf,inf,1,1,1,1,16,85,16,100,4,0,1,1,1,0
685296185,685295840,45936231,42.3585499,-71.08724959999999,1.8255435,-1.1154697,4.57908,47.302635,102.79922,-0.00024282932,0.024736095,0.004333269,-0.0017047458,-0.027762663,10.28581,20.871662,-1.5133445,-0.024112428,0.02402035,0.014310211,2.937301,0.01443576,5.8792663,0.10657072,0.6736674,0.46715593,0.20434254,0.1270537,inf,inf,inf,inf,1,1,1,1,16,85,16,100,4,0,1,1,1,0
685793920,685793542,45936231,42.3585499,-71.08724959999999,1.8769017,-1.1557901,4.5824456,47.302635,102.79922,-0.00024282932,0.020085683,-3.389998e-05,-0.00335062,-0.015719334,10.28581,20.871662,-1.5133445,0.018682862,0.008175321,-0.02829747,2.9385872,0.01443576,5.8792663,0.10369539,0.67082703,0.46991917,0.20933545,0.12832122,inf,inf,inf,inf,1,1,1,1,16,85,16,100,4,0,1,1,1,0
686291645,686291243,45936231,42.3585499,-71.08724959999999,1.9399513,-1.1751854,4.5781665,47.302635,102.79922,-0.00024282932,0.020557826,0.0011639025,0.0007502462,-0.010128317,10.28581,20.871662,-1.5133445,-0.03249499,0.004470145,0.02829371,2.9399045,0.01443576,5.8792663,0.1,0.68236476,0.47199547,0.21360238,0.1291116,inf,inf,inf,inf,1,1,1,1,16,85,16,100,4,0,1,1,1,0
686799272,686798899,45936231,42.3585499,-71.08724959999999,2.0162668,-1.1961263,4.566483,47.302635,102.79922,-0.00024282932,0.019989388,0.0040100086,-0.003340047,-0.019142445,10.28581,20.871662,-1.5133445,-0.010374977,0.024063295,-0.0470115,2.941291,0.01443576,5.8792663,0.1,0.68420684,0.47235054,0.2200215,0.13019602,inf,inf,inf,inf,1,1,1,1,16,85,16,100,4,0,1,1,1,0
687296946,687296600,45936231,42.3585499,-71.08724959999999,2.0397427,-1.1883534,4.564523,47.302635,102.79922,-0.00024282932,0.006402078,0.015549601,0.00067099114,-0.00771005,10.28581,20.871662,-1.5133445,-0.030162524,0.033670492,0.0011029072,2.9423425,0.01443576,5.8792663,0.111104965,0.7043402,0.476546,0.22857332,0.1318017,inf,inf,inf,inf,1,1,1,1,16,85,16,100,4,0,1,1,1,0
687794735,687794301,45936231,42.3585499,-71.08724959999999,2.1046982,-1.1942961,4.5782595,47.302635,102.79922,-0.00024282932,0.007666564,0.01672781,0.007834276,0.011946067,10.28581,20.871662,-1.5133445,-0.04226697,0.017731521,0.0035894283,2.943906,0.01443576,5.8792663,0.10543394,0.7015096,0.4793731,0.23002289,0.13260753,inf,inf,inf,inf,1,1,1,1,16,85,16,100,4,0,1,1,1,0
688292349,688292002,45936231,42.3585499,-71.08724959999999,2.1217206,-1.2162095,4.5940585,47.302635,102.79922,-0.00024282932,-0.0094709955,0.013469341,0.0033568589,0.014856383,10.28581,20.871662,-1.5133445,-0.044373985,-0.0032234138,0.0088706305,2.9448726,0.01443576,5.8792663,0.10108709,0.7134192,0.48116335,0.23149182,0.132897,inf,inf,inf,inf,1,1,1,1,16,85,16,100,4,0,1,1,1,0
688790045,688789702,45936231,42.3585499,-71.08724959999999,2.1205463,-1.2232199,4.600106,47.302635,102.79922,-0.00024282932,-0.026749536,0.015741892,-0.004954827,0.005839309,10.28581,20.871662,-1.5133445,-0.037366003,5.8850226e-05,0.029154487,2.9453323,0.01443576,5.8792663,0.10312462,0.7071988,0.48331445,0.23079804,0.1333035,inf,inf,inf,inf,1,1,1,1,16,85,16,100,4,0,1,1,1,0
689297717,689297357,45936231,42.3585499,-71.08724959999999,2.1761444,-1.2243922,4.6038074,47.302635,102.79922,-0.00024282932,-0.012675707,0.020452641,-0.0004251519,0.0090854755,10.28581,20.871662,-1.5133445,-0.038278315,0.02945736,-0.021679223,2.9462712,0.01443576,5.8792663,0.100004196,0.6931654,0.47407272,0.21324417,0.12942652,inf,inf,inf,inf,1,1,1,1,16,85,16,100,4,0,1,1,1,0
689795431,689795057,45936231,42.3585499,-71.08724959999999,2.20702,-1.1954013,4.6190143,47.302635,102.79922,-0.00024282932,-0.013710724,0.0336958,0.012837652,0.0284823,10.28581,20.871662,-1.5133445,-0.037303526,0.033924107,-0.106947735,2.94743,0.01443576,5.8792663,0.104848385,0.67901546,0.4732038,0.2089878,0.12876053,inf,inf,inf,inf,1,1,1,1,16,85,16,100,4,0,1,1,1,0
690293162,690292757,45936231,42.3585499,-71.08724959999999,2.2210612,-1.1995895,4.640291,47.302635,102.79922,-0.00024282932,-0.019044401,0.031617835,0.02632391,0.043979306,10.28581,20.871662,-1.5133445,0.0070124837,0.01967789,0.00069871667,2.948249,0.01443576,5.8792663,0.104450226,0.6896667,0.47484186,0.21302556,0.1293822,inf,inf,inf,inf,1,1,1,1,16,85,16,100,4,0,1,1,1,0
690800803,690800411,45936231,42.3585499,-71.08724959999999,2.2952332,-1.2385336,4.6679215,47.302635,102.79922,-0.00024282932,-0.0017114289,0.017558314,0.02678308,0.0445854,10.28581,20.871662,-1.5133445,-0.057830464,0.00975828,-0.11315879,2.9492671,0.01443576,5.8792663,0.1,0.68300307,0.4727089,0.21420653,0.12934203,inf,inf,inf,inf,1,1,1,1,16,85,16,100,4,0,1,1,1,0
691298510,691298111,45936231,42.3585499,-71.08724959999999,2.3800495,-1.3046511,4.6628003,47.302635,102.79922,-0.00024282932,0.012152993,-0.00023641667,0.016464723,0.012369551,10.28581,20.871662,-1.5133445,-0.021127744,0.021356829,0.003762332,2.9497576,0.01443576,5.8792663,0.1,0.6854493,0.47203907,0.21195534,0.12877442,inf,inf,inf,inf,1,1,1,1,16,85,16,100,4,0,1,1,1,0
691796155,691795811,45936231,42.3585499,-71.08724959999999,2.4314249,-1.3384553,4.652005,47.302635,102.79922,-0.00024282932,0.008668435,-0.0018682684,0.02080831,0.0022365854,10.28581,20.871662,-1.5133445,-0.0033529566,-0.0067843352,-0.0011747818,2.9498675,0.01443576,5.8792663,0.1,0.6743711,0.47275013,0.21125427,0.12895429,inf,inf,inf,inf,1,1,1,1,16,85,16,100,4,0,1,1,1,0
692293959,692293511,45936231,42.3585499,-71.08724959999999,2.5115693,-1.392191,4.642207,47.302635,102.79922,-0.00024282932,0.010195596,-0.012843505,0.021159556,-0.0039303,10.28581,20.871662,-1.5133445,-0.025269754,-0.014158383,-0.08041136,2.9501636,0.01443576,5.8792663,0.1,0.69114685,0.47653192,0.22003657,0.13060144,inf,inf,inf,inf,1,1,1,1,16,85,16,100,4,0,1,1,1,0
692791643,692791210,45936231,42.3585499,-71.08724959999999,2.6152022,-1.471598,4.63519,47.302635,102.79922,-0.00024282932,0.027245704,-0.030886158,0.01599774,-0.01051859,10.28581,20.871662,-1.5133445,-0.030371834,-0.0009084457,0.11735637,2.950248,0.01443576,5.8792663,0.1,0.6804452,0.47301522,0.21825041,0.1300366,inf,inf,inf,inf,1,1,1,1,16,85,16,100,4,0,1,1,1,0
693299210,693298863,45936231,42.3585499,-71.08724959999999,2.6902008,-1.5481443,4.6200585,47.302635,102.79922,-0.00024282932,0.029672371,-0.041456435,0.011308545,-0.022174373,10.28581,20.871662,-1.5133445,-0.0068230443,-0.0031125636,-0.0010767282,2.9502227,0.01443576,5.8792663,0.1,0.69787884,0.47713324,0.225448,0.13144128,inf,inf,inf,inf,1,1,1,1,16,85,16,100,4,0,1,1,1,0
693796905,693796562,45936231,42.3585499,-71.08724959999999,2.7512028,-1.6189183,4.602257,47.302635,102.79922,-0.00024282932,0.023940403,-0.05257872,0.016301215,-0.022810942,10.28581,20.871662,-1.5133445,-0.018394843,-0.0044512996,-0.024019036,2.9504023,0.01443576,5.8792663,0.1,0.6895786,0.47867417,0.22411488,0.13171567,inf,inf,inf,inf,1,1,1,1,16,85,16,100,4,0,1,1,1,0
694294660,694294261,45936231,42.3585499,-71.08724959999999,2.812523,-1.6980923,4.5767817,47.302635,102.79922,-0.00024282932,0.02328533,-0.06266895,0.0073149055,-0.03894871,10.28581,20.871662,-1.5133445,-0.01300556,-0.0076128393,-0.0042997743,2.950466,0.01443576,5.8792663,0.1,0.69958705,0.47558564,0.2250973,0.13122202,inf,inf,inf,inf,1,1,1,1,16,85,16,100,4,0,1,1,1,0
694792338,694791959,45936231,42.3585499,-71.08724959999999,2.917628,-1.790614,4.5499086,47.302635,102.79922,-0.00024282932,0.03248094,-0.07443262,-0.008643514,-0.055488907,10.28581,20.871662,-1.5133445,-0.058206704,-0.020452656,-0.000114155635,2.9507113,0.01443576,5.8792663,0.10193348,0.6855746,0.47533014,0.22013769,0.13069491,inf,inf,inf,inf,1,1,1,1,16,85,16,100,4,0,1,1,1,0
695290004,695289658,45936231,42.3585499,-71.08724959999999,3.029609,-1.8891039,4.5341825,47.302635,102.79922,-0.00024282932,0.035073858,-0.0870589,-0.008598578,-0.043497503,10.28581,20.871662,-1.5133445,-0.026833208,-0.008731206,0.015117095,2.9509792,0.01443576,5.8792663,0.10948324,0.7080288,0.47996593,0.23062082,0.1325337,inf,inf,inf,inf,1,1,1,1,16,85,16,100,4,0,1,1,1,0
695797655,695797310,45936231,42.3585499,-71.08724959999999,3.1083074,-1.9638112,4.522396,47.302635,102.79922,-0.00024282932,0.028449811,-0.08724581,-0.014606345,-0.038971774,10.28581,20.871662,-1.5133445,0.030698337,0.00080973725,-0.0075812154,2.9516819,0.01443576,5.8792663,0.10697842,0.6959365,0.48103335,0.22579683,0.13225493,inf,inf,inf,inf,1,1,1,1,16,85,16,100,4,0,1,1,1,0
696295381,696295008,45936231,42.3585499,-71.08724959999999,3.1986437,-2.0418973,4.505066,47.302635,102.79922,-0.00024282932,0.032912463,-0.09165125,-0.02233312,-0.0428867,10.28581,20.871662,-1.5133445,-0.019545598,0.0022582945,0.06091114,2.952085,0.01443576,5.8792663,0.110618114,0.7227846,0.48181614,0.23817195,0.13362467,inf,inf,inf,inf,1,1,1,1,16,85,16,100,4,0,1,1,1,0
696793102,696792706,45936231,42.3585499,-71.08724959999999,3.3104289,-2.1244848,4.497356,47.302635,102.79922,-0.00024282932,0.037396085,-0.09317413,-0.01903588,-0.028135007,10.28581,20.871662,-1.5133445,-0.020869533,-0.012309037,-0.0015318169,2.9526136,0.01443576,5.8792663,0.1148715,0.68406695,0.47511673,0.21458499,0.12983336,inf,inf,inf,inf,1,1,1,1,16,85,16,100,4,0,1,1,1,0
697300731,697300358,45936231,42.3585499,-71.08724959999999,3.3948565,-2.186941,4.5002413,47.302635,102.79922,-0.00024282932,0.028545361,-0.08762124,-0.020384684,-0.017585592,10.28581,20.871662,-1.5133445,-0.02799302,0.029550606,-0.11224637,2.9532826,0.01443576,5.8792663,0.10420132,0.6946004,0.4770039,0.21704774,0.13022372,inf,inf,inf,inf,1,1,1,1,16,85,16,100,4,0,1,1,1,0
697798558,697798056,45936231,42.3585499,-71.08724959999999,3.4936152,-2.2660708,4.493185,47.302635,102.79922,-0.00024282932,0.030071497,-0.09035182,-0.02135822,-0.017426921,10.28581,20.871662,-1.5133445,-0.011879864,-0.005400311,-0.015395556,2.9540112,0.01443576,5.8792663,0.10384035,0.6801708,0.47614366,0.21222919,0.12954499,inf,inf,inf,inf,1,1,1,1,16,85,16,100,4,0,1,1,1,0
698296104,698295753,45936231,42.3585499,-71.08724959999999,3.5912447,-2.3440475,4.4735417,47.302635,102.79922,-0.00024282932,0.0332547,-0.089213245,-0.029534135,-0.033485424,10.28581,20.871662,-1.5133445,-0.01555018,0.0047023473,-0.005869381,2.9545643,0.01443576,5.8792663,0.10065603,0.7006442,0.48041746,0.22269231,0.13141401,inf,inf,inf,inf,1,1,1,1,16,85,16,100,4,0,1,1,1,0
698793811,698793451,45936231,42.3585499,-71.08724959999999,3.7033763,-2.4188795,4.446959,47.302635,102.79922,-0.00024282932,0.044334237,-0.08890937,-0.032126684,-0.043258056,10.28581,20.871662,-1.5133445,-0.00885385,0.006229513,0.049179886,2.9541361,0.01443576,5.8792663,0.10439491,0.6796933,0.47332224,0.2130571,0.12921049,inf,inf,inf,inf,1,1,1,1,16,85,16,100,4,0,1,1,1,0
699291543,699291148,45936231,42.3585499,-71.08724959999999,3.787757,-2.5032895,4.4300847,47.302635,102.79922,-0.00024282932,0.037786447,-0.090870574,-0.025799971,-0.034221824,10.28581,20.871662,-1.5133445,-0.02349567,-0.010745404,0.009643305,2.9530249,0.01443576,5.8792663,0.10739136,0.69808,0.47703472,0.22201721,0.13082811,inf,inf,inf,inf,1,1,1,1,16,85,16,100,4,0,1,1,1,0
699799145,699798799,45936231,42.3585499,-71.08724959999999,3.8372464,-2.573301,4.4239717,47.302635,102.79922,-0.00024282932,0.021883285,-0.086847626,-0.025685849,-0.026063288,10.28581,20.871662,-1.5133445,-0.038947843,-0.014405002,-0.0042234273,2.951837,0.01443576,5.8792663,0.10186243,0.67976385,0.47580478,0.21359834,0.12967755,inf,inf,inf,inf,1,1,1,1,16,85,16,100,4,0,1,1,1,0
700296866,700296496,45936231,42.3585499,-71.08724959999999,3.8920853,-2.6422482,4.412656,47.302635,102.79922,-0.00024282932,0.01933496,-0.08122861,-0.03019928,-0.028939199,10.28581,20.871662,-1.5133445,0.009422342,-0.026435701,0.09339085,2.9494514,0.01443576,5.8792663,0.10513258,0.6964456,0.4746879,0.2214388,0.13042967,inf,inf,inf,inf,1,1,1,1,16,85,16,100,4,0,1,1,1,0
