timestamp,timestamp_sample,ref_timestamp,ref_lat,ref_lon,x,y,z,delta_xy[0],delta_xy[1],delta_z,vx,vy,vz,z_deriv,delta_vxy[0],delta_vxy[1],delta_vz,ax,ay,az,heading,delta_heading,ref_alt,dist_bottom,eph,epv,evh,evv,vxy_max,vz_max,hagl_min,hagl_max,xy_valid,z_valid,v_xy_valid,v_z_valid,xy_reset_counter,z_reset_counter,vxy_reset_counter,vz_reset_counter,heading_reset_counter,heading_good_for_control,xy_global,z_global,dist_bottom_valid,dist_bottom_sensor_bitfield
539788435,539788128,45930887,42.3585499,-71.08724959999999,3.4977572,-2.971343,5.3901687,0.0011367018,0.000111144094,0.0,0.038384136,0.016064603,0.023675347,0.015351294,0.00446994,-0.05826801,0.14515758,0.06247182,0.023512786,-0.018131386,2.5547674,0.023883352,5.8776836,0.10115147,0.6249312,0.46145302,0.20629059,0.12798916,inf,inf,inf,inf,1,1,1,1,2,0,2,1,4,0,1,1,1,0
540288461,540288070,45930887,42.3585499,-71.08724959999999,3.529726,-2.9941185,5.3974767,0.0011367018,0.000111144094,0.0,0.03942136,0.01129301,0.01949307,0.013026995,0.00446994,-0.05826801,0.14515758,0.033342194,-0.016145887,-0.15155871,2.5547156,0.023883352,5.8776836,0.1,0.62597334,0.45694026,0.20112893,0.1263823,inf,inf,inf,inf,1,1,1,1,2,0,2,1,4,0,1,1,1,0
540798372,540798012,45930887,42.3585499,-71.08724959999999,3.5687194,-3.0407138,5.3896627,0.0011367018,0.000111144094,0.0,0.04176877,-0.0071832086,0.014196313,0.00024046846,0.00446994,-0.05826801,0.14515758,-0.017387835,-0.041416027,0.06018975,2.5543137,0.023883352,5.8776836,0.1,0.5934477,0.4488844,0.180497,0.12150021,inf,inf,inf,inf,1,1,1,1,2,0,2,1,4,0,1,1,1,0
541288284,541287955,45930887,42.3585499,-71.08724959999999,3.5777485,-3.1145856,5.37445,0.0011367018,0.000111144094,0.0,0.029227892,-0.029418673,0.011175672,-0.015573486,0.00446994,-0.05826801,0.14515758,0.0053557865,-0.0588716,-0.034019955,2.553825,0.023883352,5.8776836,0.1,0.59590894,0.4482149,0.18176594,0.121408,inf,inf,inf,inf,1,1,1,1,2,0,2,1,4,0,1,1,1,0
541788268,541787898,45930887,42.3585499,-71.08724959999999,3.5908346,-3.1772385,5.352232,0.0011367018,0.000111144094,0.0,0.021946562,-0.03974474,0.011791864,-0.024534289,0.00446994,-0.05826801,0.14515758,-0.014635264,0.0051787253,0.03024787,2.553659,0.023883352,5.8776836,0.1,0.5824219,0.44699067,0.17941678,0.12080057,inf,inf,inf,inf,1,1,1,1,2,0,2,1,4,0,1,1,1,0
542288356,542287841,45930887,42.3585499,-71.08724959999999,3.6097598,-3.2269976,5.3356066,0.0011367018,0.000111144094,0.0,0.02277815,-0.04846815,0.007930574,-0.031865127,0.00446994,-0.05826801,0.14515758,0.04342861,-0.041887052,-0.07138616,2.5529816,0.023883352,5.8776836,0.1,0.595056,0.44767904,0.18891715,0.12257209,inf,inf,inf,inf,1,1,1,1,2,0,2,1,4,0,1,1,1,0
542788106,542787783,45930887,42.3585499,-71.08724959999999,3.6264222,-3.3146138,5.3021646,0.0011367018,0.000111144094,0.0,0.015469667,-0.0705596,0.0022403814,-0.046690922,0.00446994,-0.05826801,0.14515758,0.007493471,-0.06158786,-0.06387162,2.5524015,0.023883352,5.8776836,0.1,0.58335173,0.4473481,0.18591064,0.12214262,inf,inf,inf,inf,1,1,1,1,2,0,2,1,4,0,1,1,1,0
543288115,543287726,45930887,42.3585499,-71.08724959999999,3.6398509,-3.3589058,5.2727113,0.0011367018,0.000111144094,0.0,0.009192285,-0.07646052,-0.01950311,-0.065715306,0.00446994,-0.05826801,0.14515758,0.0028163036,0.003722757,-0.0234871,2.5521817,0.023883352,5.8776836,0.1053319,0.59264374,0.4499903,0.19087955,0.12332571,inf,inf,inf,inf,1,1,1,1,2,0,2,1,4,0,1,1,1,0
543797978,543797667,45930887,42.3585499,-71.08724959999999,3.6431398,-3.374361,5.251269,0.0011367018,0.000111144094,0.0,-0.0006977139,-0.06756839,-0.021464935,-0.0560413,0.00446994,-0.05826801,0.14515758,-0.036217246,-0.011449334,0.021324432,2.5518649,0.023883352,5.8776836,0.10885286,0.5792821,0.44924566,0.18524675,0.12234992,inf,inf,inf,inf,1,1,1,1,2,0,2,1,4,0,1,1,1,0
544298009,544297610,45930887,42.3585499,-71.08724959999999,3.675451,-3.3800006,5.235687,0.0011367018,0.000111144094,0.0,0.0031193036,-0.051889468,-0.010033999,-0.037259426,0.00446994,-0.05826801,0.14515758,-0.0050557316,0.050114468,0.01825344,2.5511906,0.023883352,5.8776836,0.1,0.5903812,0.44886923,0.19146556,0.12336068,inf,inf,inf,inf,1,1,1,1,2,0,2,1,4,0,1,1,1,0
544787947,544787554,45930887,42.3585499,-71.08724959999999,3.6967442,-3.371329,5.2294216,0.0011367018,0.000111144094,0.0,0.010834051,-0.035761688,-0.009312062,-0.027974496,0.00446994,-0.05826801,0.14515758,-0.0042795846,0.026820125,-0.08466741,2.5509672,0.023883352,5.8776836,0.10567522,0.57820696,0.44786116,0.18781935,0.12277046,inf,inf,inf,inf,1,1,1,1,2,0,2,1,4,0,1,1,1,0
545287811,545287497,45930887,42.3585499,-71.08724959999999,3.7307365,-3.378983,5.2202168,0.0011367018,0.000111144094,0.0,0.022153972,-0.030664202,-0.0054748333,-0.023792885,0.00446994,-0.05826801,0.14515758,-0.02490089,0.0035664567,-0.0096877385,2.5507183,0.023883352,5.8776836,0.1,0.59555787,0.45333493,0.19788413,0.12524441,inf,inf,inf,inf,1,1,1,1,2,0,2,1,4,0,1,1,1,0
545787747,545787439,45930887,42.3585499,-71.08724959999999,3.7171006,-3.3988352,5.217598,0.0011367018,0.000111144094,0.0,0.008055838,-0.03386393,-0.0067843855,-0.018282559,0.00446994,-0.05826801,0.14515758,0.024055148,0.11018295,0.033886127,2.5499983,0.023883352,5.8776836,0.10136604,0.5892339,0.4548773,0.19700333,0.1255086,inf,inf,inf,inf,1,1,1,1,2,0,2,1,4,0,1,1,1,0
546287814,546287382,45930887,42.3585499,-71.08724959999999,3.723521,-3.4113162,5.1993346,0.0011367018,0.000111144094,0.0,0.010252236,-0.02760608,-0.010322564,-0.029951993,0.00446994,-0.05826801,0.14515758,-0.04019063,0.05020289,0.19171613,2.5494325,0.023883352,5.8776836,0.1,0.6028417,0.45450404,0.2016392,0.1261325,inf,inf,inf,inf,1,1,1,1,2,0,2,1,4,0,1,1,1,0
546787806,546787325,45930887,42.3585499,-71.08724959999999,3.7337701,-3.3951707,5.1927114,0.0011367018,0.000111144094,0.0,0.009161693,-0.014507263,-0.0100567,-0.024704417,0.00446994,-0.05826801,0.14515758,-0.016972482,-0.0077526425,-0.19193804,2.549141,0.023883352,5.8776836,0.106945515,0.59811205,0.45660755,0.20075685,0.12649639,inf,inf,inf,inf,1,1,1,1,2,0,2,1,4,0,1,1,1,0
547297586,547297267,45930887,42.3585499,-71.08724959999999,3.7758846,-3.3559427,5.1989107,0.0011367018,0.000111144094,0.0,0.02037937,0.0108048245,0.0061486317,0.0039417148,0.00446994,-0.05826801,0.14515758,0.018212516,0.03070798,0.025643233,2.5485706,0.023883352,5.8776836,0.10736561,0.6167976,0.46201283,0.20800336,0.12824717,inf,inf,inf,inf,1,1,1,1,2,0,2,1,4,0,1,1,1,0
547797591,547797210,45930887,42.3585499,-71.08724959999999,3.8034232,-3.3201802,5.2023535,0.0011367018,0.000111144094,0.0,0.025412517,0.029463558,0.006040537,0.0055497233,0.00446994,-0.05826801,0.14515758,-0.0020950015,0.033086997,0.12593915,2.548337,0.023883352,5.8776836,0.10234308,0.6085287,0.45892417,0.20403017,0.12732722,inf,inf,inf,inf,1,1,1,1,2,0,2,1,4,0,1,1,1,0
548287518,548287154,45930887,42.3585499,-71.08724959999999,3.8323524,-3.308441,5.2122054,0.0011367018,0.000111144094,0.0,0.02902935,0.033999622,0.011119031,0.015818795,0.00446994,-0.05826801,0.14515758,0.0017540241,0.103501715,0.12436679,2.5485356,0.023883352,5.8776836,0.1017437,0.6188576,0.46032426,0.20553626,0.12757424,inf,inf,inf,inf,1,1,1,1,2,0,2,1,4,0,1,1,1,0
548787399,548787097,45930887,42.3585499,-71.08724959999999,3.9085019,-3.261222,5.231716,0.0011367018,0.000111144094,0.0,0.051539555,0.05153333,0.01701371,0.026809284,0.00446994,-0.05826801,0.14515758,-0.03655383,-0.04202111,0.011107455,2.5482228,0.023883352,5.8776836,0.1,0.61343426,0.46190602,0.20396136,0.1276495,inf,inf,inf,inf,1,1,1,1,2,0,2,1,4,0,1,1,1,0
549287353,549287040,45930887,42.3585499,-71.08724959999999,3.9293091,-3.2331452,5.2457576,0.0011367018,0.000111144094,0.0,0.04843527,0.059982564,0.01876653,0.026296219,0.00446994,-0.05826801,0.14515758,-0.016496297,0.03126148,0.015405233,2.5481036,0.023883352,5.8776836,0.1,0.63179874,0.4661598,0.21077873,0.12905611,inf,inf,inf,inf,1,1,1,1,2,0,2,1,4,0,1,1,1,0
549787383,549786984,45930887,42.3585499,-71.08724959999999,3.9401104,-3.23127,5.257743,0.0011367018,0.000111144094,0.0,0.039689388,0.05891747,0.025231486,0.028671736,0.00446994,-0.05826801,0.14515758,0.002350336,0.034268744,-0.020765299,2.548164,0.023883352,5.8776836,0.1,0.61185634,0.4630261,0.19848095,0.1267637,inf,inf,inf,inf,1,1,1,1,2,0,2,1,4,0,1,1,1,0
550297282,550296926,45930887,42.3585499,-71.08724959999999,3.999428,-3.25155,5.253519,0.0011367018,0.000111144094,0.0,0.054824304,0.044876706,0.020105489,0.0090445895,0.00446994,-0.05826801,0.14515758,0.016335374,0.015806522,0.010050268,2.5479157,0.023883352,5.8776836,0.1,0.6219905,0.46120152,0.20054398,0.12654349,inf,inf,inf,inf,1,1,1,1,2,0,2,1,4,0,1,1,1,0
550797192,550796870,45930887,42.3585499,-71.08724959999999,4.011129,-3.2415617,5.2483773,0.0011367018,0.000111144094,0.0,0.04250926,0.04843414,0.032118175,0.010750748,0.00446994,-0.05826801,0.14515758,-0.016127333,-0.009664093,-0.00011410305,2.5475953,0.023883352,5.8776836,0.1,0.60208684,0.45757598,0.19006005,0.12428131,inf,inf,inf,inf,1,1,1,1,2,0,2,1,4,0,1,1,1,0
551297288,551296812,45930887,42.3585499,-71.08724959999999,4.0211053,-3.246484,5.228575,0.0011367018,0.000111144094,0.0,0.041270062,0.04013226,0.021622352,-0.01735637,0.00446994,-0.05826801,0.14515758,-0.019157501,-0.03165822,0.051109497,2.5476034,0.023883352,5.8776836,0.1,0.60888356,0.45839757,0.19239828,0.12454996,inf,inf,inf,inf,1,1,1,1,2,0,2,1,4,0,1,1,1,0
551787075,551786757,45930887,42.3585499,-71.08724959999999,4.0434623,-3.2603767,5.2069964,0.0011367018,0.000111144094,0.0,0.042181768,0.031228196,0.016716434,-0.030306974,0.00446994,-0.05826801,0.14515758,-0.033548206,0.009084185,0.0696369,2.5475626,0.023883352,5.8776836,0.1,0.591068,0.45479873,0.18527177,0.12283308,inf,inf,inf,inf,1,1,1,1,2,0,2,1,4,0,1,1,1,0
552287068,552286700,45930887,42.3585499,-71.08724959999999,4.091835,-3.272827,5.1927996,0.0011367018,0.000111144094,0.0,0.050398953,0.031434853,0.013415141,-0.033165473,0.00446994,-0.05826801,0.14515758,0.010047379,0.0052937507,-0.03775575,2.5473897,0.023883352,5.8776836,0.1,0.60164475,0.4534897,0.1914253,0.12357961,inf,inf,inf,inf,1,1,1,1,2,0,2,1,4,0,1,1,1,0
552786965,552786644,45930887,42.3585499,-71.08724959999999,4.10553,-3.283426,5.1779003,0.0011367018,0.000111144094,0.0,0.042803366,0.031973127,0.01667652,-0.028608454,0.00446994,-0.05826801,0.14515758,0.010118607,0.0070655122,-0.07369187,2.5475776,0.023883352,5.8776836,0.10014057,0.5819137,0.4493883,0.1816915,0.121336386,inf,inf,inf,inf,1,1,1,1,2,0,2,1,4,0,1,1,1,0
553291936,553286587,45930887,42.3585499,-71.08724959999999,4.123313,-3.305829,5.1830254,0.0011367018,0.000111144094,0.0,0.039644424,0.029212171,0.02706742,-0.0049845194,0.00446994,-0.05826801,0.14515758,0.039526336,0.03661953,-0.06737495,2.5475101,0.023883352,5.8776836,0.10144091,0.58626544,0.4495895,0.1835225,0.121570565,inf,inf,inf,inf,1,1,1,1,2,0,2,1,4,0,1,1,1,0
553796896,553796529,45930887,42.3585499,-71.08724959999999,4.162413,-3.3593712,5.199554,0.0011367018,0.000111144094,0.0,0.047850892,0.010240957,0.030418567,0.013646004,0.00446994,-0.05826801,0.14515758,0.0142365,0.024572998,-0.044695303,2.5472906,0.023883352,5.8776836,0.1,0.5685583,0.44270846,0.17660181,0.119325355,inf,inf,inf,inf,1,1,1,1,2,0,2,1,4,0,1,1,1,0
554296816,554296473,45930887,42.3585499,-71.08724959999999,4.16041,-3.390405,5.1936026,0.0011367018,0.000111144094,0.0,0.035612714,0.0061038057,0.02550045,-0.00013363137,0.00446994,-0.05826801,0.14515758,0.004937992,0.015911777,0.07790608,2.5473106,0.023883352,5.8776836,0.1,0.57549214,0.4443777,0.18151176,0.120453656,inf,inf,inf,inf,1,1,1,1,2,0,2,1,4,0,1,1,1,0
554796842,554796417,45930887,42.3585499,-71.08724959999999,4.145589,-3.400024,5.1803393,0.0011367018,0.000111144094,0.0,0.014926983,0.011823976,0.03314975,-0.0031643421,0.00446994,-0.05826801,0.14515758,-0.015742246,0.0033197175,-0.0500871,2.547342,0.023883352,5.8776836,0.1,0.56411827,0.44377002,0.17969488,0.12023818,inf,inf,inf,inf,1,1,1,1,2,0,2,1,4,0,1,1,1,0
555286706,555286361,45930887,42.3585499,-71.08724959999999,4.0908265,-3.3345933,5.1637745,0.0011367018,0.000111144094,0.0,-0.0068361736,0.04044895,0.024736928,-0.019909179,0.00446994,-0.05826801,0.14515758,0.0020499178,0.009233273,-0.021672606,2.5470185,0.023883352,5.8776836,0.1,0.5724719,0.44580045,0.18529975,0.12162327,inf,inf,inf,inf,1,1,1,1,2,0,2,1,4,0,1,1,1,0
555786760,555786305,45930887,42.3585499,-71.08724959999999,4.0576386,-3.3282402,5.14471,0.0011367018,0.000111144094,0.0,-0.02350463,0.0396488,0.026046319,-0.025028761,0.00446994,-0.05826801,0.14515758,-0.03605299,0.013607878,0.008612673,2.546877,0.023883352,5.8776836,0.1,0.5510095,0.4404283,0.17303632,0.1186288,inf,inf,inf,inf,1,1,1,1,2,0,2,1,4,0,1,1,1,0
556296571,556296248,45930887,42.3585499,-71.08724959999999,4.039025,-3.3086262,5.122029,0.0011367018,0.000111144094,0.0,-0.030174807,0.046788458,0.018802969,-0.035604846,0.00446994,-0.05826801,0.14515758,0.0016539972,0.0007815764,0.090523295,2.5471265,0.023883352,5.8776836,0.1,0.5637742,0.44210878,0.18283528,0.12083379,inf,inf,inf,inf,1,1,1,1,2,0,2,1,4,0,1,1,1,0
556796503,556796192,45930887,42.3585499,-71.08724959999999,4.0626903,-3.3073676,5.110863,0.0011367018,0.000111144094,0.0,-0.013743522,0.04197535,0.012592003,-0.033438038,0.00446994,-0.05826801,0.14515758,0.017969595,-0.0159984,0.015633242,2.5468235,0.023883352,5.8776836,0.103767395,0.5507799,0.44082543,0.17838532,0.120007806,inf,inf,inf,inf,1,1,1,1,2,0,2,1,4,0,1,1,1,0
557296442,557296136,45930887,42.3585499,-71.08724959999999,4.090906,-3.3052437,5.09205,0.0011367018,0.000111144094,0.0,-0.0022694636,0.038528655,0.003382021,-0.04302789,0.00446994,-0.05826801,0.14515758,-0.04360245,0.018439125,0.02498883,2.546493,0.023883352,5.8776836,0.1020484,0.5683098,0.4472217,0.19074701,0.1232712,inf,inf,inf,inf,1,1,1,1,2,0,2,1,4,0,1,1,1,0
557796424,557796079,45930887,42.3585499,-71.08724959999999,4.1071672,-3.3104744,5.068432,0.0011367018,0.000111144094,0.0,-0.0027139587,0.035894156,0.004161832,-0.042432975,0.00446994,-0.05826801,0.14515758,-0.02839529,0.039507784,-0.04179992,2.5464644,0.023883352,5.8776836,0.10112381,0.5632002,0.44571367,0.19102037,0.12342713,inf,inf,inf,inf,1,1,1,1,2,0,2,1,4,0,1,1,1,0
558296335,558296024,45930887,42.3585499,-71.08724959999999,4.1288824,-3.3035486,5.061619,0.0011367018,0.000111144094,0.0,-0.0017742167,0.037057035,0.0028944789,-0.03061475,0.00446994,-0.05826801,0.14515758,0.024080236,-0.024789894,-0.0303772,2.5465121,0.023883352,5.8776836,0.11106825,0.5778123,0.45010486,0.19724149,0.12513064,inf,inf,inf,inf,1,1,1,1,2,0,2,1,4,0,1,1,1,0
558786284,558785969,45930887,42.3585499,-71.08724959999999,4.161969,-3.2842443,5.069711,0.0011367018,0.000111144094,0.0,0.00669714,0.04201224,0.008624048,-0.010328245,0.00446994,-0.05826801,0.14515758,-0.031582978,0.0068417736,-0.0662275,2.5463333,0.023883352,5.8776836,0.10300398,0.56491816,0.4489437,0.19070719,0.124075,inf,inf,inf,inf,1,1,1,1,2,0,2,1,4,0,1,1,1,0
559296273,559295912,45930887,42.3585499,-71.08724959999999,4.1750684,-3.327645,5.060027,0.0011367018,0.000111144094,0.0,0.009422648,0.01710116,0.0040631066,-0.01846856,0.00446994,-0.05826801,0.14515758,-0.05574783,-0.017926572,0.013442982,2.5462718,0.023883352,5.8776836,0.1,0.57739663,0.44919437,0.19483842,0.124704964,inf,inf,inf,inf,1,1,1,1,2,0,2,1,4,0,1,1,1,0
559796243,559795856,45930887,42.3585499,-71.08724959999999,4.1821785,-3.3333642,5.0582733,0.0011367018,0.000111144094,0.0,0.009910193,0.01461425,0.0013174312,-0.013789665,0.00446994,-0.05826801,0.14515758,0.0390317,0.019640146,-0.19991656,2.5461287,0.023883352,5.8776836,0.11017704,0.565866,0.44884837,0.18946661,0.12385292,inf,inf,inf,inf,1,1,1,1,2,0,2,1,4,0,1,1,1,0
560296212,560295800,45930887,42.3585499,-71.08724959999999,4.192329,-3.3168404,5.0716,0.0011367018,0.000111144094,0.0,0.011418072,0.021201415,0.009270053,0.007797256,0.00446994,-0.05826801,0.14515758,-0.0004721731,-0.0045662127,0.0688986,2.5455775,0.023883352,5.8776836,0.10103083,0.5791112,0.45247903,0.19503017,0.12515078,inf,inf,inf,inf,1,1,1,1,2,0,2,1,4,0,1,1,1,0
560796063,560795744,45930887,42.3585499,-71.08724959999999,4.2132206,-3.3183413,5.0742035,0.0011367018,0.000111144094,0.0,0.023120001,0.012358071,0.00071249413,-0.0036325962,0.00446994,-0.05826801,0.14515758,-0.0008784578,0.0025075136,0.020627148,2.5451062,0.023883352,5.8776836,0.100616455,0.57028604,0.45303717,0.1916882,0.12476439,inf,inf,inf,inf,1,1,1,1,2,0,2,1,4,0,1,1,1,0
561296097,561295688,45930887,42.3585499,-71.08724959999999,4.2322245,-3.313075,5.077224,0.0011367018,0.000111144094,0.0,0.029525544,0.005881868,0.008466843,0.004648477,0.00446994,-0.05826801,0.14515758,0.0063150246,-0.0032184657,0.07671608,2.5448089,0.023883352,5.8776836,0.1,0.58483547,0.45309454,0.19752684,0.1255823,inf,inf,inf,inf,1,1,1,1,2,0,2,1,4,0,1,1,1,0
561796014,561795632,45930887,42.3585499,-71.08724959999999,4.208898,-3.3141778,5.0853324,0.0011367018,0.000111144094,0.0,0.018429302,-0.00058513077,0.007962865,0.007772038,0.00446994,-0.05826801,0.14515758,-0.0267645,-0.013950128,0.025147928,2.5442152,0.023883352,5.8776836,0.11163807,0.57423544,0.45293635,0.19245149,0.12478002,inf,inf,inf,inf,1,1,1,1,2,0,2,1,4,0,1,1,1,0
562285891,562285578,45930887,42.3585499,-71.08724959999999,4.188686,-3.2846875,5.106922,0.0011367018,0.000111144094,0.0,0.011554789,0.007391616,0.029428354,0.03547307,0.00446994,-0.05826801,0.14515758,-0.00830687,0.054240834,0.019426411,2.5438092,0.023883352,5.8776836,0.1,0.578489,0.45235497,0.19077338,0.12417959,inf,inf,inf,inf,1,1,1,1,2,0,2,1,4,0,1,1,1,0
562795859,562795521,45930887,42.3585499,-71.08724959999999,4.1855073,-3.2422032,5.108726,0.0011367018,0.000111144094,0.0,0.0063950336,0.011276522,0.026289811,0.020493021,0.00446994,-0.05826801,0.14515758,-0.031025667,0.042609002,0.068329476,2.5449328,0.023883352,5.8776836,0.1,0.5724759,0.45402053,0.18958476,0.1242557,inf,inf,inf,inf,1,1,1,1,2,0,2,1,4,0,1,1,1,0
563295794,563295465,45930887,42.3585499,-71.08724959999999,4.161962,-3.219279,5.1009974,0.0011367018,0.000111144094,0.0,-0.0048969006,0.005494221,0.016489655,-0.0014577692,0.00446994,-0.05826801,0.14515758,-0.002895735,-0.030138584,-0.016665448,2.5464008,0.023883352,5.8776836,0.1,0.58678967,0.45768434,0.19591783,0.12566006,inf,inf,inf,inf,1,1,1,1,2,0,2,1,4,0,1,1,1,0
563795716,563795410,45930887,42.3585499,-71.08724959999999,4.1402106,-3.1888587,5.100981,0.0011367018,0.000111144094,0.0,-0.002739187,0.011696159,0.018179897,0.0012043242,0.00446994,-0.05826801,0.14515758,-0.007979605,0.010759917,-0.048662897,2.5476804,0.023883352,5.8776836,0.100631714,0.57736397,0.45401263,0.1927394,0.12470865,inf,inf,inf,inf,1,1,1,1,2,0,2,1,4,0,1,1,1,0
564295762,564295354,45930887,42.3585499,-71.08724959999999,4.101955,-3.1597881,5.113551,0.0011367018,0.000111144094,0.0,-0.0099399,0.011041015,0.013855198,0.00854931,0.00446994,-0.05826801,0.14515758,0.009481676,0.0061375867,0.055200152,2.5490692,0.023883352,5.8776836,0.10348177,0.586184,0.45553643,0.1944452,0.12501903,inf,inf,inf,inf,1,1,1,1,2,0,2,1,4,0,1,1,1,0
564795712,564795298,45930887,42.3585499,-71.08724959999999,4.0775023,-3.164609,5.1158195,0.0011367018,0.000111144094,0.0,-0.0015050124,-0.0049885963,0.016562592,0.008340066,0.00446994,-0.05826801,0.14515758,-0.01496272,0.012716496,-0.06921852,2.5505028,0.023883352,5.8776836,0.1,0.58177525,0.45746684,0.19513164,0.12553267,inf,inf,inf,inf,1,1,1,1,2,0,2,1,4,0,1,1,1,0
565295746,565295243,45930887,42.3585499,-71.08724959999999,4.0180492,-3.1465628,5.1213756,0.0011367018,0.000111144094,0.0,-0.018389149,-0.0030052003,0.036175683,0.023039946,0.00446994,-0.05826801,0.14515758,-0.017893808,-0.035335798,-0.070209675,2.551741,0.023883352,5.8776836,0.1,0.6006062,0.4584173,0.20371327,0.12692724,inf,inf,inf,inf,1,1,1,1,2,0,2,1,4,0,1,1,1,0
565795564,565795187,45930887,42.3585499,-71.08724959999999,3.9409971,-3.1287591,5.123762,0.0011367018,0.000111144094,0.0,-0.028210564,-0.0056498023,0.029827794,0.012904465,0.00446994,-0.05826801,0.14515758,0.029149845,-0.12634093,0.048649833,2.5531127,0.023883352,5.8776836,0.1,0.5865524,0.45688263,0.19524798,0.12546927,inf,inf,inf,inf,1,1,1,1,2,0,2,1,4,0,1,1,1,0
566295489,566295132,45930887,42.3585499,-71.08724959999999,3.8651805,-3.1059506,5.132631,0.0011367018,0.000111144094,0.0,-0.038862273,-0.010111138,0.027438851,0.01338943,0.00446994,-0.05826801,0.14515758,0.026999686,-0.024744116,0.01053947,2.5540724,0.023883352,5.8776836,0.1,0.5971522,0.45870447,0.19752358,0.1258945,inf,inf,inf,inf,1,1,1,1,2,0,2,1,4,0,1,1,1,0
566795417,566795076,45930887,42.3585499,-71.08724959999999,3.7870011,-3.042877,5.131909,0.0011367018,0.000111144094,0.0,-0.05465022,0.014836792,0.026236584,0.0074484963,0.00446994,-0.05826801,0.14515758,-0.05651496,0.017196693,0.09766876,2.5554514,0.023883352,5.8776836,0.1,0.5930233,0.46036035,0.19758058,0.12625429,inf,inf,inf,inf,1,1,1,1,2,0,2,1,4,0,1,1,1,0
567295429,567295021,45930887,42.3585499,-71.08724959999999,3.7535708,-2.9477153,5.1420965,0.0011367018,0.000111144094,0.0,-0.05280311,0.042416543,0.03221863,0.015308297,0.00446994,-0.05826801,0.14515758,-0.026760235,-0.18214779,0.035858683,2.5568886,0.023883352,5.8776836,0.1,0.60972923,0.46006817,0.20385636,0.12704594,inf,inf,inf,inf,1,1,1,1,2,0,2,1,4,0,1,1,1,0
567795320,567794965,45930887,42.3585499,-71.08724959999999,3.75197,-2.827292,5.1602416,0.0011367018,0.000111144094,0.0,-0.02371393,0.073383935,0.025767537,0.01947965,0.00446994,-0.05826801,0.14515758,0.0068880147,0.02838685,0.072200716,2.55829,0.023883352,5.8776836,0.10208273,0.60679543,0.4620405,0.204006,0.12747517,inf,inf,inf,inf,1,1,1,1,2,0,2,1,4,0,1,1,1,0
568295568,568294910,45930887,42.3585499,-71.08724959999999,3.7331822,-2.6911294,5.1784964,0.0011367018,0.000111144094,0.0,-0.02253142,0.11045651,0.044578955,0.040218696,0.00446994,-0.05826801,0.14515758,0.07943821,0.13153139,0.010123691,2.559641,0.023883352,5.8776836,0.1,0.5995821,0.462468,0.1998811,0.12701933,inf,inf,inf,inf,1,1,1,1,2,0,2,1,4,0,1,1,1,0
568795181,568794855,45930887,42.3585499,-71.08724959999999,3.6467364,-2.643912,5.1906967,0.0011367018,0.000111144094,0.0,-0.049775258,0.10115309,0.044127334,0.03386552,0.00446994,-0.05826801,0.14515758,0.021987261,0.008524523,0.009730449,2.5610356,0.023883352,5.8776836,0.1,0.6216788,0.46763533,0.20918871,0.1290118,inf,inf,inf,inf,1,1,1,1,2,0,2,1,4,0,1,1,1,0
569295362,569294799,45930887,42.3585499,-71.08724959999999,3.5561173,-2.6442513,5.205708,0.0011367018,0.000111144094,0.0,-0.067196324,0.078331016,0.05587205,0.04103817,0.00446994,-0.05826801,0.14515758,-0.029319407,-0.2445119,-0.24184877,2.5620973,0.023883352,5.8776836,0.1,0.6398495,0.46703812,0.21435922,0.12947583,inf,inf,inf,inf,1,1,1,1,2,0,2,1,4,0,1,1,1,0
569795060,569794744,45930887,42.3585499,-71.08724959999999,3.5449,-2.644004,5.224553,0.0011367018,0.000111144094,0.0,-0.05502004,0.055812467,0.06271546,0.04617766,0.00446994,-0.05826801,0.14515758,-0.022028288,0.057760403,0.119502686,2.5631235,0.023883352,5.8776836,0.1,0.63039136,0.46709266,0.20877802,0.12877893,inf,inf,inf,inf,1,1,1,1,2,0,2,1,4,0,1,1,1,0
570294998,570294689,45930887,42.3585499,-71.08724959999999,3.5096557,-2.5883362,5.2369323,0.0011367018,0.000111144094,0.0,-0.05786432,0.06382965,0.061751623,0.03646623,0.00446994,-0.05826801,0.14515758,-0.050771702,0.037688192,-0.0073951967,2.5642567,0.023883352,5.8776836,0.1,0.6516671,0.47148886,0.21660778,0.13032196,inf,inf,inf,inf,1,1,1,1,2,0,2,1,4,0,1,1,1,0
570794987,570794633,45930887,42.3585499,-71.08724959999999,3.4714332,-2.5589132,5.2229095,0.0011367018,0.000111144094,0.0,-0.050998725,0.050554205,0.046738017,-0.001841674,0.00446994,-0.05826801,0.14515758,0.0011590398,-0.045924775,0.050768852,2.5652995,0.023883352,5.8776836,0.1,0.6553775,0.47538394,0.22029957,0.13151173,inf,inf,inf,inf,1,1,1,1,2,0,2,1,4,0,1,1,1,0
571294943,571294578,45930887,42.3585499,-71.08724959999999,3.4912453,-2.5009503,5.2119355,0.0011367018,0.000111144094,0.0,-0.02640469,0.061367884,0.044923395,-0.008659982,0.00446994,-0.05826801,0.14515758,-0.030440642,-0.002099764,-0.0063695223,2.5664923,0.023883352,5.8776836,0.1,0.6801945,0.47578427,0.2286534,0.13236775,inf,inf,inf,inf,1,1,1,1,2,0,2,1,4,0,1,1,1,0
571794862,571794522,45930887,42.3585499,-71.08724959999999,3.5382452,-2.488866,5.2126923,0.0011367018,0.000111144094,0.0,0.0032385609,0.045723036,0.052784003,0.002765775,0.00446994,-0.05826801,0.14515758,-0.0046108174,-0.02165901,-0.084767945,2.567405,0.023883352,5.8776836,0.1,0.68028945,0.47877735,0.22870237,0.13293706,inf,inf,inf,inf,1,1,1,1,2,0,2,1,4,0,1,1,1,0
572294821,572294467,45930887,42.3585499,-71.08724959999999,3.5343962,-2.4715827,5.2111616,0.0011367018,0.000111144094,0.0,0.006752692,0.03951415,0.045969777,-0.004075254,0.00446994,-0.05826801,0.14515758,0.01707559,-0.019302512,0.14928925,2.568522,0.023883352,5.8776836,0.1,0.7001855,0.48216575,0.23302048,0.13369198,inf,inf,inf,inf,1,1,1,1,2,0,2,1,4,0,1,1,1,0
572794718,572794412,45930887,42.3585499,-71.08724959999999,3.516431,-2.4506903,5.205356,0.0011367018,0.000111144094,0.0,0.008193354,0.02952315,0.04441563,-0.0071723186,0.00446994,-0.05826801,0.14515758,-0.007042476,-0.04898353,-0.0893222,2.5698693,0.023883352,5.8776836,0.1,0.68566304,0.48156396,0.2240828,0.13255464,inf,inf,inf,inf,1,1,1,1,2,0,2,1,4,0,1,1,1,0
573294688,573294356,45930887,42.3585499,-71.08724959999999,3.4552746,-2.428017,5.193215,0.0011367018,0.000111144094,0.0,-0.008068463,0.026916567,0.03623974,-0.019460006,0.00446994,-0.05826801,0.14515758,0.024431614,0.078490585,-0.038419027,2.5707526,0.023883352,5.8776836,0.1,0.7097484,0.48129344,0.23233216,0.13319458,inf,inf,inf,inf,1,1,1,1,2,0,2,1,4,0,1,1,1,0
573794765,573794301,45930887,42.3585499,-71.08724959999999,3.3911457,-2.4223464,5.1900887,0.0011367018,0.000111144094,0.0,-0.021886801,0.011751512,0.039202258,-0.012974607,0.00446994,-0.05826801,0.14515758,-0.052435745,-0.057455044,0.10348716,2.5717921,0.023883352,5.8776836,0.1,0.68367994,0.4776992,0.21776052,0.13086867,inf,inf,inf,inf,1,1,1,1,2,0,2,1,4,0,1,1,1,0
574294694,574294246,45930887,42.3585499,-71.08724959999999,3.3761227,-2.4064074,5.1681013,0.0011367018,0.000111144094,0.0,-0.02010109,-0.0027827597,0.02281704,-0.03894853,0.00446994,-0.05826801,0.14515758,0.029821953,-0.020089585,-0.41188523,2.5703406,0.023883352,5.8776836,0.1,0.6979471,0.47986573,0.22184841,0.13142712,inf,inf,inf,inf,1,1,1,1,2,0,2,1,4,0,1,1,1,0
574794494,574794190,45930887,42.3585499,-71.08724959999999,3.3256805,-2.3937128,5.120392,0.0011367018,0.000111144094,0.0,-0.049523495,-0.04005619,0.01682383,-0.0660261,0.00446994,-0.05826801,0.14515758,-0.05642658,-0.03092955,-0.04459783,2.5714943,0.023883352,5.8776836,0.1,0.68065816,0.4783124,0.21444333,0.13024083,inf,inf,inf,inf,1,1,1,1,2,0,2,1,4,0,1,1,1,0
575294482,575294135,45930887,42.3585499,-71.08724959999999,3.3033354,-2.3742979,5.079875,0.0011367018,0.000111144094,0.0,-0.06579762,-0.06523008,0.004488277,-0.08069191,0.00446994,-0.05826801,0.14515758,0.12842906,-0.19388919,0.102793865,2.573229,0.023883352,5.8776836,0.1,0.691779,0.47530892,0.21747465,0.12994146,inf,inf,inf,inf,1,1,1,1,2,0,2,1,4,0,1,1,1,0
575794382,575794079,45930887,42.3585499,-71.08724959999999,3.2700567,-2.3098876,5.0702333,0.0011367018,0.000111144094,0.0,-0.07336147,-0.076760665,0.011774116,-0.049275633,0.00446994,-0.05826801,0.14515758,0.0016119288,-0.08712612,0.13958158,2.5749102,0.023883352,5.8776836,0.10982323,0.66849655,0.47175106,0.20685636,0.12798542,inf,inf,inf,inf,1,1,1,1,2,0,2,1,4,0,1,1,1,0
576294333,576294024,45930887,42.3585499,-71.08724959999999,3.2397788,-2.239203,5.065418,0.0011367018,0.000111144094,0.0,-0.08353495,-0.07993904,0.007603688,-0.035214968,0.00446994,-0.05826801,0.14515758,-0.06777613,-0.009476064,0.09654598,2.5769868,0.023883352,5.8776836,0.12116289,0.682921,0.47437042,0.21375665,0.12914781,inf,inf,inf,inf,1,1,1,1,2,0,2,1,4,0,1,1,1,0
576794336,576793969,45930887,42.3585499,-71.08724959999999,3.1797292,-2.2077644,5.072303,0.0011367018,0.000111144094,0.0,-0.10671975,-0.09662274,-0.0017200896,-0.02355263,0.00446994,-0.05826801,0.14515758,-0.1886835,-0.11023542,0.40955824,2.5793397,0.023883352,5.8776836,0.1,0.6736049,0.47067916,0.21290837,0.12862925,inf,inf,inf,inf,1,1,1,1,2,0,2,1,4,0,1,1,1,0
577294273,577293913,45930887,42.3585499,-71.08724959999999,3.099814,-2.2053335,5.035518,0.0011367018,0.000111144094,0.0,-0.13363923,-0.12043687,-0.01650805,-0.05657109,0.00446994,-0.05826801,0.14515758,-0.0046535553,-0.09811999,0.2263527,2.5809393,0.023883352,5.8776836,0.1,0.6901784,0.4737396,0.2199726,0.12990619,inf,inf,inf,inf,1,1,1,1,2,0,2,1,4,0,1,1,1,0
577794183,577793858,45930887,42.3585499,-71.08724959999999,3.070242,-2.18614,5.0071645,0.0011367018,0.000111144094,0.0,-0.12623549,-0.121131435,-0.028314792,-0.06461976,0.00446994,-0.05826801,0.14515758,-0.021001643,-0.045155805,-0.07506868,2.5827458,0.023883352,5.8776836,0.102730274,0.68503875,0.47551763,0.22078037,0.13044988,inf,inf,inf,inf,1,1,1,1,2,0,2,1,4,0,1,1,1,0
578294224,578293802,45930887,42.3585499,-71.08724959999999,3.0778356,-2.0892785,4.9670043,0.0011367018,0.000111144094,0.0,-0.1029379,-0.08603917,-0.041649595,-0.08273318,0.00446994,-0.05826801,0.14515758,0.008701717,-0.05125975,-0.08275411,2.584475,0.023883352,5.8776836,0.10264778,0.70185804,0.47844794,0.22655484,0.13150398,inf,inf,inf,inf,1,1,1,1,2,0,2,1,4,0,1,1,1,0
578794268,578793747,45930887,42.3585499,-71.08724959999999,3.0775247,-2.0453103,4.908122,0.0011367018,0.000111144094,0.0,-0.09131052,-0.07980632,-0.050876014,-0.10414626,0.00446994,-0.05826801,0.14515758,-0.0048114145,-0.041247465,0.022424385,2.586565,0.023883352,5.8776836,0.1,0.69102055,0.4742708,0.22206393,0.13050234,inf,inf,inf,inf,1,1,1,1,2,0,2,1,4,0,1,1,1,0
579293999,579293691,45930887,42.3585499,-71.08724959999999,3.0434198,-2.0069742,4.8701644,0.0011367018,0.000111144094,0.0,-0.09566187,-0.065999515,-0.053731218,-0.091918066,0.00446994,-0.05826801,0.14515758,-0.0042476426,-0.01015931,-0.011437869,2.5894115,0.023883352,5.8776836,0.11754179,0.7030616,0.47588468,0.22420442,0.13086723,inf,inf,inf,inf,1,1,1,1,2,0,2,1,4,0,1,1,1,0
579793987,579793636,45930887,42.3585499,-71.08724959999999,2.9947722,-1.976365,4.840558,0.0011367018,0.000111144094,0.0,-0.095411554,-0.057452276,-0.06451559,-0.08930382,0.00446994,-0.05826801,0.14515758,0.0073424666,-0.08407365,-0.0018398989,2.5917435,0.023883352,5.8776836,0.118142605,0.69925976,0.47785848,0.22470403,0.13138324,inf,inf,inf,inf,1,1,1,1,2,0,2,1,4,0,1,1,1,0
580293884,580293580,45930887,42.3585499,-71.08724959999999,2.9316032,-1.9849982,4.8289633,0.0011367018,0.000111144094,0.0,-0.10790512,-0.06465648,-0.0368927,-0.04308956,0.00446994,-0.05826801,0.14515758,-0.028938118,-0.020095695,-0.012277581,2.595416,0.023883352,5.8776836,0.119706154,0.7226599,0.48208183,0.23355015,0.13293213,inf,inf,inf,inf,1,1,1,1,2,0,2,1,4,0,1,1,1,0
580793937,580793525,45930887,42.3585499,-71.08724959999999,2.8942254,-1.9519331,4.8425517,0.0011367018,0.000111144094,0.0,-0.10707396,-0.054988503,-0.021721136,-0.0021217228,0.00446994,-0.05826801,0.14515758,-0.029340547,-0.012358909,0.03247104,2.5981903,0.023883352,5.8776836,0.12307453,0.7107517,0.4773752,0.22684108,0.13155347,inf,inf,inf,inf,1,1,1,1,2,0,2,1,4,0,1,1,1,0
581294161,581293470,45930887,42.3585499,-71.08724959999999,2.9333553,-1.8915646,4.863951,0.0011367018,0.000111144094,0.0,-0.069177724,-0.03543936,-0.023656363,0.011779003,0.00446994,-0.05826801,0.14515758,-0.0035873775,-0.024851864,-0.018349726,2.6013813,0.023883352,5.8776836,0.12531567,0.7090974,0.4795649,0.22744767,0.13205424,inf,inf,inf,inf,1,1,1,1,2,0,2,1,4,0,1,1,1,0
581793718,581793413,45930887,42.3585499,-71.08724959999999,2.8338578,-1.7580568,4.8935976,0.0011367018,0.000111144094,0.0,-0.100741945,0.012107465,-0.009692555,0.041442934,0.00446994,-0.05826801,0.14515758,0.0018728223,2.195776e-05,-0.07137565,2.603995,0.023883352,5.8776836,0.11884022,0.7256785,0.48202547,0.23076338,0.13262461,inf,inf,inf,inf,1,1,1,1,2,0,2,1,4,0,1,1,1,0
582293803,582293358,45930887,42.3585499,-71.08724959999999,2.7952197,-1.6367285,4.9333687,0.0011367018,0.000111144094,0.0,-0.10648348,0.038781017,-0.0076507083,0.053449795,0.00446994,-0.05826801,0.14515758,0.00416147,9.581202e-05,-0.034945704,2.6052327,0.023883352,5.8776836,0.107058525,0.7354187,0.4828017,0.23005007,0.13245359,inf,inf,inf,inf,1,1,1,1,2,0,2,1,4,0,1,1,1,0
582793781,582793302,45930887,42.3585499,-71.08724959999999,2.7513852,-1.6311721,4.96418,0.0011367018,0.000111144094,0.0,-0.10336951,0.029980088,-0.0025368885,0.054082867,0.00446994,-0.05826801,0.14515758,0.010414764,0.0031422016,-0.015037856,2.6081269,0.023883352,5.8776836,0.1,0.72118247,0.47736868,0.2237329,0.13092114,inf,inf,inf,inf,1,1,1,1,2,0,2,1,4,0,1,1,1,0
583293569,583293246,45930887,42.3585499,-71.08724959999999,2.7124593,-1.6606749,4.963398,0.0011367018,0.000111144094,0.0,-0.09578059,0.016799262,-0.016172925,0.017396778,0.00446994,-0.05826801,0.14515758,-0.011872884,0.010393242,-0.111129105,2.6097965,0.023883352,5.8776836,0.1,0.7405878,0.48065457,0.23080455,0.13206603,inf,inf,inf,inf,1,1,1,1,2,0,2,1,4,0,1,1,1,0
583793555,583793190,45930887,42.3585499,-71.08724959999999,2.6766143,-1.6833694,4.9386864,0.0011367018,0.000111144094,0.0,-0.0869764,0.013529544,-0.012814178,-0.005784412,0.00446994,-0.05826801,0.14515758,0.016027737,0.018860795,0.05103509,2.6117375,0.023883352,5.8776836,0.1,0.72147274,0.47885004,0.22137201,0.13075073,inf,inf,inf,inf,1,1,1,1,2,0,2,1,4,0,1,1,1,0
584293447,584293134,45930887,42.3585499,-71.08724959999999,2.6057272,-1.7033548,4.9174085,0.0011367018,0.000111144094,0.0,-0.09257046,0.010667473,-0.015534712,-0.022202767,0.00446994,-0.05826801,0.14515758,0.033970293,0.028312372,0.14819312,2.613473,0.023883352,5.8776836,0.1,0.73866725,0.4817823,0.22797638,0.13182114,inf,inf,inf,inf,1,1,1,1,2,0,2,1,4,0,1,1,1,0
584793382,584793078,45930887,42.3585499,-71.08724959999999,2.5701582,-1.7411993,4.8973646,0.0011367018,0.000111144094,0.0,-0.0739922,0.0018757549,-0.010844517,-0.02451491,0.00446994,-0.05826801,0.14515758,0.038672507,-0.011218416,0.02154202,2.6152337,0.023883352,5.8776836,0.1,0.7140684,0.47391096,0.21569952,0.12917623,inf,inf,inf,inf,1,1,1,1,2,0,2,1,4,0,1,1,1,0
585293332,585293022,45930887,42.3585499,-71.08724959999999,2.5054479,-1.7895926,4.887977,0.0011367018,0.000111144094,0.0,-0.06989451,-0.006080056,-0.008963261,-0.019795747,0.00446994,-0.05826801,0.14515758,0.004309541,0.020268714,0.0073101344,2.6174755,0.023883352,5.8776836,0.1,0.7328017,0.4775029,0.22466744,0.1307002,inf,inf,inf,inf,1,1,1,1,2,0,2,1,4,0,1,1,1,0
585793274,585792967,45930887,42.3585499,-71.08724959999999,2.3992739,-1.8120191,4.8884573,0.0011367018,0.000111144094,0.0,-0.08720305,0.00041089387,0.0006718516,-0.0028754878,0.00446994,-0.05826801,0.14515758,0.011573131,0.055731434,0.019204054,2.619472,0.023883352,5.8776836,0.106508255,0.7252182,0.4788974,0.22478288,0.13106398,inf,inf,inf,inf,1,1,1,1,2,0,2,1,4,0,1,1,1,0
586293300,586292910,45930887,42.3585499,-71.08724959999999,2.315838,-1.8127849,4.8982086,0.0011367018,0.000111144094,0.0,-0.0884718,0.0121575715,-0.0033667255,0.0030928343,0.00446994,-0.05826801,0.14515758,0.034118075,-0.005250262,-0.11903897,2.6215668,0.023883352,5.8776836,0.10803938,0.7446851,0.48263782,0.23326463,0.13248244,inf,inf,inf,inf,1,1,1,1,2,0,2,1,4,0,1,1,1,0
586793234,586792855,45930887,42.3585499,-71.08724959999999,2.2873645,-1.7836819,4.92141,0.0011367018,0.000111144094,0.0,-0.06826,0.03627129,-0.0063896347,0.018309416,0.00446994,-0.05826801,0.14515758,0.003089962,0.038678583,-0.04583584,2.624007,0.023883352,5.8776836,0.10913706,0.72608703,0.4769147,0.22478867,0.13075861,inf,inf,inf,inf,1,1,1,1,2,0,2,1,4,0,1,1,1,0
587293318,587292798,45930887,42.3585499,-71.08724959999999,2.3032238,-1.7272123,4.9417577,0.0011367018,0.000111144094,0.0,-0.03928826,0.05976546,-0.014557534,0.018419081,0.00446994,-0.05826801,0.14515758,-0.025978295,0.050066333,0.028597187,2.6261992,0.023883352,5.8776836,0.10225582,0.7460278,0.4807238,0.23348367,0.13220745,inf,inf,inf,inf,1,1,1,1,2,0,2,1,4,0,1,1,1,0
587793066,587792742,45930887,42.3585499,-71.08724959999999,2.3416183,-1.6989146,4.964559,0.0011367018,0.000111144094,0.0,-0.014700385,0.0696802,-0.010837892,0.0330838,0.00446994,-0.05826801,0.14515758,-0.011467892,0.04172662,0.041296188,2.6282203,0.023883352,5.8776836,0.117619514,0.71164125,0.47481441,0.21331765,0.1289124,inf,inf,inf,inf,1,1,1,1,2,0,2,1,4,0,1,1,1,0
588292990,588292685,45930887,42.3585499,-71.08724959999999,2.3334665,-1.7113576,5.010677,0.0011367018,0.000111144094,0.0,-0.011469869,0.05751109,-0.007427103,0.0548697,0.00446994,-0.05826801,0.14515758,0.04666669,-0.022903621,-0.061575856,2.6306486,0.023883352,5.8776836,0.105122566,0.71912736,0.47535428,0.21504088,0.12903668,inf,inf,inf,inf,1,1,1,1,2,0,2,1,4,0,1,1,1,0
588793041,588792629,45930887,42.3585499,-71.08724959999999,2.333549,-1.6890767,5.030695,0.0011367018,0.000111144094,0.0,-0.0023906215,0.053841256,0.0018283658,0.054556347,0.00446994,-0.05826801,0.14515758,-0.0055592665,0.0105944285,0.05000579,2.6326847,0.023883352,5.8776836,0.1,0.70629174,0.47043645,0.21188125,0.12798303,inf,inf,inf,inf,1,1,1,1,2,0,2,1,4,0,1,1,1,0
589292900,589292573,45930887,42.3585499,-71.08724959999999,2.3290405,-1.660308,5.053893,0.0011367018,0.000111144094,0.0,0.0064357407,0.052863628,0.02115688,0.06545703,0.00446994,-0.05826801,0.14515758,-0.0068800654,0.0235288,0.08065296,2.6351705,0.023883352,5.8776836,0.1,0.7159351,0.47166047,0.21506488,0.12848406,inf,inf,inf,inf,1,1,1,1,2,0,2,1,4,0,1,1,1,0
589792826,589792516,45930887,42.3585499,-71.08724959999999,2.339458,-1.6317878,5.070223,0.0011367018,0.000111144094,0.0,0.028176723,0.054147094,0.03928715,0.06476238,0.00446994,-0.05826801,0.14515758,0.061962985,0.0067727924,0.06354964,2.6373782,0.023883352,5.8776836,0.1,0.7055992,0.4717192,0.21313646,0.12836392,inf,inf,inf,inf,1,1,1,1,2,0,2,1,4,0,1,1,1,0
590292803,590292459,45930887,42.3585499,-71.08724959999999,2.3207006,-1.5804583,5.089234,0.0011367018,0.000111144094,0.0,0.035706636,0.063323595,0.05014181,0.063826084,0.00446994,-0.05826801,0.14515758,0.07182394,-0.013637992,-0.038932987,2.639197,0.023883352,5.8776836,0.1,0.72335523,0.47537097,0.22151642,0.129944,inf,inf,inf,inf,1,1,1,1,2,0,2,1,4,0,1,1,1,0
590792793,590792403,45930887,42.3585499,-71.08724959999999,2.3410704,-1.4930755,5.113068,0.0011367018,0.000111144094,0.0,0.05671564,0.088493586,0.06465904,0.06893433,0.00446994,-0.05826801,0.14515758,0.040307146,0.003912929,0.07835767,2.6401916,0.023883352,5.8776836,0.1,0.7266623,0.47496143,0.22816767,0.1308873,inf,inf,inf,inf,1,1,1,1,2,0,2,1,4,0,1,1,1,0
591292677,591292346,45930887,42.3585499,-71.08724959999999,2.3504386,-1.4385682,5.1294107,0.0011367018,0.000111144094,0.0,0.0657309,0.094169416,0.059178066,0.05212395,0.00446994,-0.05826801,0.14515758,0.019159706,0.023298578,-0.081972286,2.641189,0.023883352,5.8776836,0.1,0.75094825,0.47974023,0.23839028,0.13268325,inf,inf,inf,inf,1,1,1,1,2,0,2,1,4,0,1,1,1,0
591792724,591792289,45930887,42.3585499,-71.08724959999999,2.3415654,-1.3743913,5.13058,0.0011367018,0.000111144094,0.0,0.06985639,0.10080571,0.04712617,0.022918567,0.00446994,-0.05826801,0.14515758,0.049390383,0.0044059674,-0.120810196,2.641677,0.023883352,5.8776836,0.1,0.7339488,0.47901905,0.22923636,0.13171545,inf,inf,inf,inf,1,1,1,1,2,0,2,1,4,0,1,1,1,0
592292681,592292232,45930887,42.3585499,-71.08724959999999,2.2981455,-1.3487401,5.112648,0.0011367018,0.000111144094,0.0,0.04799355,0.0735064,0.028551446,-0.0137028685,0.00446994,-0.05826801,0.14515758,-0.111666426,-0.10534461,-0.04173694,2.6389153,0.023883352,5.8776836,0.1,0.7599088,0.4796738,0.24051844,0.13293472,inf,inf,inf,inf,1,1,1,1,2,0,2,1,4,0,1,1,1,0
592792528,592792175,45930887,42.3585499,-71.08724959999999,2.2179763,-1.3787105,5.094725,0.0011367018,0.000111144094,0.0,-0.012905144,-0.02877736,0.026562285,-0.022249456,0.00446994,-0.05826801,0.14515758,-0.0042543123,-0.112580985,0.37167978,2.6444392,0.023883352,5.8776836,0.1,0.7460808,0.47977725,0.2339199,0.13233896,inf,inf,inf,inf,1,1,1,1,2,0,2,1,4,0,1,1,1,0
593292424,593292118,45930887,42.3585499,-71.08724959999999,2.1260512,-1.4680825,5.076679,0.0011367018,0.000111144094,0.0,-0.067030795,-0.12786366,0.012816673,-0.03379036,0.00446994,-0.05826801,0.14515758,-0.054418165,-0.12938195,0.06479492,2.6452088,0.023883352,5.8776836,0.1,0.7734375,0.484847,0.24522369,0.1340961,inf,inf,inf,inf,1,1,1,1,2,0,2,1,4,0,1,1,1,0
593792423,593792061,45930887,42.3585499,-71.08724959999999,2.0497491,-1.5170494,5.068833,0.0011367018,0.000111144094,0.0,-0.09908229,-0.19088061,0.00885476,-0.027583022,0.00446994,-0.05826801,0.14515758,-0.09736787,-0.11038285,0.03498683,2.6482625,0.023883352,5.8776836,0.107709885,0.7626905,0.48560894,0.23939046,0.13368195,inf,inf,inf,inf,1,1,1,1,2,0,2,1,4,0,1,1,1,0
594287304,594282005,45930887,42.3585499,-71.08724959999999,1.9704119,-1.5938127,5.0582867,0.0011367018,0.000111144094,0.0,-0.1274841,-0.24472864,0.024544837,-0.011920634,0.00446994,-0.05826801,0.14515758,-0.026253022,-0.14187309,0.048591457,2.649782,0.023883352,5.8776836,0.1,0.7898447,0.48946422,0.24945083,0.13508385,inf,inf,inf,inf,1,1,1,1,2,0,2,1,4,0,1,1,1,0
594792251,594791947,45930887,42.3585499,-71.08724959999999,1.7828304,-1.7461656,5.039119,0.0011367018,0.000111144094,0.0,-0.1875663,-0.3123289,0.020199537,-0.024373095,0.00446994,-0.05826801,0.14515758,-0.026624346,-0.111782804,0.014311856,2.6516902,0.023883352,5.8776836,0.1,0.79278314,0.48877168,0.25154555,0.13518691,inf,inf,inf,inf,1,1,1,1,2,0,2,1,4,0,1,1,1,0
595292294,595291889,45930887,42.3585499,-71.08724959999999,1.6498773,-1.8146313,5.052642,0.0011367018,0.000111144094,0.0,-0.20761167,-0.33170044,0.018235454,-0.0047405995,0.00446994,-0.05826801,0.14515758,-0.016756626,-0.12339141,-0.3476414,2.6535068,0.023883352,5.8776836,0.10549307,0.80794394,0.49059474,0.2524978,0.13528469,inf,inf,inf,inf,1,1,1,1,2,0,2,1,4,0,1,1,1,0
595792153,595791832,45930887,42.3585499,-71.08724959999999,1.6218449,-1.8694234,5.072657,0.0011367018,0.000111144094,0.0,-0.18698357,-0.3357217,0.027293082,0.020515602,0.00446994,-0.05826801,0.14515758,-0.029623115,-0.06839245,-0.019182393,2.6555982,0.023883352,5.8776836,0.10544157,0.7937389,0.49049604,0.24495852,0.13455404,inf,inf,inf,inf,1,1,1,1,2,0,2,1,4,0,1,1,1,0
596292245,596291774,45930887,42.3585499,-71.08724959999999,1.6445988,-1.9518468,5.076825,0.0011367018,0.000111144094,0.0,-0.15413217,-0.3435366,0.020353721,0.009216974,0.00446994,-0.05826801,0.14515758,0.010876839,-0.095101744,0.084429584,2.6576414,0.023883352,5.8776836,0.1,0.8120508,0.48806232,0.2487669,0.13428341,inf,inf,inf,inf,1,1,1,1,2,0,2,1,4,0,1,1,1,0
596792147,596791717,45930887,42.3585499,-71.08724959999999,1.6697748,-1.9601457,5.07885,0.0011367018,0.000111144094,0.0,-0.120930314,-0.31509894,0.019093433,0.0044729975,0.00446994,-0.05826801,0.14515758,-0.002503498,-0.056182344,0.032407675,2.6597676,0.023883352,5.8776836,0.1,0.7961279,0.48752066,0.24106105,0.1334678,inf,inf,inf,inf,1,1,1,1,2,0,2,1,4,0,1,1,1,0
597291995,597291659,45930887,42.3585499,-71.08724959999999,1.6634903,-1.9728132,5.08432,0.0011367018,0.000111144094,0.0,-0.0984866,-0.286469,0.022296634,0.008023165,0.00446994,-0.05826801,0.14515758,0.009675228,-0.041511048,-0.032021366,2.66176,0.023883352,5.8776836,0.1,0.8120632,0.4893747,0.24463697,0.1338726,inf,inf,inf,inf,1,1,1,1,2,0,2,1,4,0,1,1,1,0
597791913,597791602,45930887,42.3585499,-71.08724959999999,1.666976,-1.9593033,5.07346,0.0011367018,0.000111144094,0.0,-0.07226263,-0.24696177,0.014715718,-0.009282047,0.00446994,-0.05826801,0.14515758,0.06344337,-0.07674918,0.113640375,2.6636415,0.023883352,5.8776836,0.1,0.79245615,0.48781824,0.2353923,0.13272315,inf,inf,inf,inf,1,1,1,1,2,0,2,1,4,0,1,1,1,0
598291903,598291544,45930887,42.3585499,-71.08724959999999,1.6321033,-1.9647708,5.058056,0.0011367018,0.000111144094,0.0,-0.05876511,-0.22050352,0.005410732,-0.025567712,0.00446994,-0.05826801,0.14515758,0.013746365,0.0021352798,-0.075088196,2.6657,0.023883352,5.8776836,0.1,0.81487024,0.48635608,0.24396372,0.1331916,inf,inf,inf,inf,1,1,1,1,2,0,2,1,4,0,1,1,1,0
598791790,598791486,45930887,42.3585499,-71.08724959999999,1.6468477,-1.9689137,5.030941,0.0011367018,0.000111144094,0.0,-0.027260566,-0.19080389,0.009641727,-0.03201191,0.00446994,-0.05826801,0.14515758,0.034500215,-0.013366516,0.027562274,2.6676471,0.023883352,5.8776836,0.100768566,0.80354136,0.4865743,0.23978038,0.13287684,inf,inf,inf,inf,1,1,1,1,2,0,2,1,4,0,1,1,1,0
599291818,599291431,45930887,42.3585499,-71.08724959999999,1.6276736,-1.9359415,5.028609,0.0011367018,0.000111144094,0.0,-0.010427369,-0.14886361,0.012719824,-0.017906917,0.00446994,-0.05826801,0.14515758,0.018247541,0.005085543,0.016831998,2.6694233,0.023883352,5.8776836,0.102413654,0.81917447,0.48836,0.24368864,0.13338849,inf,inf,inf,inf,1,1,1,1,2,0,2,1,4,0,1,1,1,0
599791710,599791369,45930887,42.3585499,-71.08724959999999,1.5880176,-1.9029443,5.012767,0.0011367018,0.000111144094,0.0,-0.0006866773,-0.110789105,8.798257e-05,-0.03396218,0.00446994,-0.05826801,0.14515758,0.051517483,-0.0018048356,-0.03987913,2.6715188,0.023883352,5.8776836,0.1,0.81007016,0.48904297,0.24111171,0.13333519,inf,inf,inf,inf,1,1,1,1,2,0,2,1,4,0,1,1,1,0
600291738,600291311,45930887,42.3585499,-71.08724959999999,1.5601815,-1.8426626,4.991713,0.0011367018,0.000111144094,0.0,0.011173463,-0.06546,-0.0012986491,-0.037385352,0.00446994,-0.05826801,0.14515758,0.008055298,0.040968537,-0.03930664,2.6734302,0.023883352,5.8776836,0.1,0.8272669,0.48653832,0.24611403,0.13331318,inf,inf,inf,inf,1,1,1,1,2,0,2,1,4,0,1,1,1,0
600791657,600791253,45930887,42.3585499,-71.08724959999999,1.5098,-1.8030969,4.962695,0.0011367018,0.000111144094,0.0,0.017845059,-0.04002907,-0.014790685,-0.05357746,0.00446994,-0.05826801,0.14515758,0.040225755,0.025160361,0.036232613,2.6748962,0.023883352,5.8776836,0.10753536,0.8167881,0.48728403,0.24344596,0.13329563,inf,inf,inf,inf,1,1,1,1,2,0,2,1,4,0,1,1,1,0
601291586,601291195,45930887,42.3585499,-71.08724959999999,1.3953155,-1.7001401,4.9329686,0.0011367018,0.000111144094,0.0,-0.006475631,0.009072187,-0.027640438,-0.06698425,0.00446994,-0.05826801,0.14515758,0.13244174,-0.010073623,0.051348843,2.6767018,0.023883352,5.8776836,0.1,0.8335006,0.48967558,0.24873194,0.13405637,inf,inf,inf,inf,1,1,1,1,2,0,2,1,4,0,1,1,1,0
601791549,601791136,45930887,42.3585499,-71.08724959999999,1.1616268,-1.5256963,4.8806767,0.0011367018,0.000111144094,0.0,-0.08833449,0.056346055,-0.03624726,-0.08669739,0.00446994,-0.05826801,0.14515758,-0.022230458,0.001265267,0.005700385,2.6783226,0.023883352,5.8776836,0.10161495,0.82814616,0.49167886,0.24955608,0.13457884,inf,inf,inf,inf,1,1,1,1,2,0,2,1,4,0,1,1,1,0
602291393,602291078,45930887,42.3585499,-71.08724959999999,1.0211871,-1.3869505,4.856307,0.0011367018,0.000111144094,0.0,-0.11489442,0.094278194,-0.045547478,-0.077307746,0.00446994,-0.05826801,0.14515758,-0.007456342,0.042727496,0.030405376,2.6786594,0.023883352,5.8776836,0.11686468,0.85080546,0.49019215,0.25736198,0.13492951,inf,inf,inf,inf,1,1,1,1,2,0,2,1,4,0,1,1,1,0
602791327,602791019,45930887,42.3585499,-71.08724959999999,0.92740643,-1.2365824,4.8444915,0.0011367018,0.000111144094,0.0,-0.12058243,0.13475394,-0.041009657,-0.052188944,0.00446994,-0.05826801,0.14515758,-0.022524368,0.04629045,-0.11812721,2.6801517,0.023883352,5.8776836,0.11956453,0.846911,0.4923468,0.25789422,0.13541183,inf,inf,inf,inf,1,1,1,1,2,0,2,1,4,0,1,1,1,0
603291269,603290960,45930887,42.3585499,-71.08724959999999,0.8213952,-1.1303321,4.844973,0.0011367018,0.000111144094,0.0,-0.13123947,0.15259588,-0.037570618,-0.029415192,0.00446994,-0.05826801,0.14515758,0.052434973,0.01303619,0.0703476,2.681365,0.023883352,5.8776836,0.112485886,0.8704157,0.4955022,0.2647715,0.13632962,inf,inf,inf,inf,1,1,1,1,2,0,2,1,4,0,1,1,1,0
603791264,603790902,45930887,42.3585499,-71.08724959999999,0.7465362,-1.0572613,4.836947,0.0011367018,0.000111144094,0.0,-0.1291961,0.15419878,-0.039412174,-0.028037712,0.00446994,-0.05826801,0.14515758,0.006909254,0.046171684,-0.16628616,2.682779,0.023883352,5.8776836,0.1150012,0.85668355,0.49099183,0.2583971,0.13516307,inf,inf,inf,inf,1,1,1,1,2,0,2,1,4,0,1,1,1,0
604291145,604290843,45930887,42.3585499,-71.08724959999999,0.68711394,-1.0213654,4.8468876,0.0011367018,0.000111144094,0.0,-0.124603584,0.13185468,-0.035492066,-0.006668052,0.00446994,-0.05826801,0.14515758,-0.0102734165,0.06173192,0.0130594475,2.6828086,0.023883352,5.8776836,0.11818218,0.87375957,0.4929382,0.26133266,0.13553834,inf,inf,inf,inf,1,1,1,1,2,0,2,1,4,0,1,1,1,0
604791108,604790784,45930887,42.3585499,-71.08724959999999,0.70910627,-0.9440183,4.8746724,0.0011367018,0.000111144094,0.0,-0.098865375,0.12635577,-0.02016235,0.030248484,0.00446994,-0.05826801,0.14515758,0.10850164,-0.017539078,0.14559607,2.680822,0.023883352,5.8776836,0.12563705,0.8432937,0.4900249,0.24488917,0.13364935,inf,inf,inf,inf,1,1,1,1,2,0,2,1,4,0,1,1,1,0
605291114,605290724,45930887,42.3585499,-71.08724959999999,0.71325564,-0.8801613,4.8957777,0.0011367018,0.000111144094,0.0,-0.08353143,0.10981065,-0.013609867,0.03479483,0.00446994,-0.05826801,0.14515758,-0.0059512053,-0.039268773,-0.02728261,2.685927,0.023883352,5.8776836,0.1,0.8600101,0.49219012,0.2500739,0.1343099,inf,inf,inf,inf,1,1,1,1,2,0,2,1,4,0,1,1,1,0
605791075,605790665,45930887,42.3585499,-71.08724959999999,0.6882546,-0.77986705,4.8924108,0.0011367018,0.000111144094,0.0,-0.08222837,0.11697945,-0.0044098278,0.023500303,0.00446994,-0.05826801,0.14515758,0.005779134,-0.028684506,0.022759024,2.6882012,0.023883352,5.8776836,0.10167885,0.8278295,0.4885124,0.23475495,0.13229825,inf,inf,inf,inf,1,1,1,1,2,0,2,1,4,0,1,1,1,0
606291012,606290606,45930887,42.3585499,-71.08724959999999,0.6534583,-0.6772723,4.902216,0.0011367018,0.000111144094,0.0,-0.084881544,0.13002382,0.0005419867,0.025878826,0.00446994,-0.05826801,0.14515758,-0.0006546414,0.017613305,0.17692797,2.6899998,0.023883352,5.8776836,0.10403967,0.843377,0.48612523,0.2414105,0.13250989,inf,inf,inf,inf,1,1,1,1,2,0,2,1,4,0,1,1,1,0
606790900,606790547,45930887,42.3585499,-71.08724959999999,0.6453888,-0.58938295,4.925836,0.0011367018,0.000111144094,0.0,-0.06437106,0.14759554,0.0031644364,0.033701174,0.00446994,-0.05826801,0.14515758,-0.00892595,0.03552514,-0.014974831,2.6918488,0.023883352,5.8776836,0.1,0.8219892,0.48473334,0.23441817,0.13169023,inf,inf,inf,inf,1,1,1,1,2,0,2,1,4,0,1,1,1,0
607290794,607290487,45930887,42.3585499,-71.08724959999999,0.6072478,-0.52713925,4.932548,0.0011367018,0.000111144094,0.0,-0.05256603,0.1575335,0.012259468,0.032611176,0.00446994,-0.05826801,0.14515758,-0.0041714483,0.05570274,0.07625585,2.6936235,0.023883352,5.8776836,0.1,0.8283041,0.4853321,0.23521778,0.13179965,inf,inf,inf,inf,1,1,1,1,2,0,2,1,4,0,1,1,1,0
607790788,607790427,45930887,42.3585499,-71.08724959999999,0.6112891,-0.559015,4.9358916,0.0011367018,0.000111144094,0.0,-0.027315427,0.13798022,0.01405452,0.022994505,0.00446994,-0.05826801,0.14515758,0.03630313,0.028901847,-0.045185324,2.6953714,0.023883352,5.8776836,0.1,0.80748135,0.48396692,0.22886738,0.13104473,inf,inf,inf,inf,1,1,1,1,2,0,2,1,4,0,1,1,1,0
608290727,608290368,45930887,42.3585499,-71.08724959999999,0.6031656,-0.6077629,4.9308167,0.0011367018,0.000111144094,0.0,-0.004750964,0.115773775,0.004750792,0.0030875914,0.00446994,-0.05826801,0.14515758,0.018002616,0.046105243,0.056063678,2.6968136,0.023883352,5.8776836,0.1,0.8104147,0.47930047,0.22892939,0.1302825,inf,inf,inf,inf,1,1,1,1,2,0,2,1,4,0,1,1,1,0
608790712,608790308,45930887,42.3585499,-71.08724959999999,0.5933342,-0.58229995,4.92706,0.0011367018,0.000111144094,0.0,0.015837684,0.1281869,0.000236268,-0.0054899594,0.00446994,-0.05826801,0.14515758,0.065590836,0.019118724,-0.030462535,2.698478,0.023883352,5.8776836,0.1,0.79348636,0.47889417,0.22541854,0.12999429,inf,inf,inf,inf,1,1,1,1,2,0,2,1,4,0,1,1,1,0
609290629,609290248,45930887,42.3585499,-71.08724959999999,0.6061628,-0.5977079,4.924114,0.0011367018,0.000111144094,0.0,0.032741446,0.12867473,0.01511493,0.007085192,0.00446994,-0.05826801,0.14515758,0.051808447,0.036438096,0.06661256,2.6998081,0.023883352,5.8776836,0.1,0.7895477,0.47701725,0.22040096,0.1290737,inf,inf,inf,inf,1,1,1,1,2,0,2,1,4,0,1,1,1,0
609790721,609790188,45930887,42.3585499,-71.08724959999999,0.6121052,-0.62766075,4.9217505,0.0011367018,0.000111144094,0.0,0.046048652,0.12742513,0.0048354953,-0.0026342324,0.00446994,-0.05826801,0.14515758,0.046913818,0.050664824,-0.0241687,2.701511,0.023883352,5.8776836,0.10407734,0.7797592,0.47414985,0.22317842,0.12918566,inf,inf,inf,inf,1,1,1,1,2,0,2,1,4,0,1,1,1,0
610290505,610290128,45930887,42.3585499,-71.08724959999999,0.59112203,-0.68935233,4.9287014,0.0011367018,0.000111144094,0.0,0.04835283,0.11169315,0.014568949,0.009322958,0.00446994,-0.05826801,0.14515758,0.09279765,-0.014959326,-0.08530742,2.7035296,0.023883352,5.8776836,0.1,0.79130864,0.4766749,0.22937758,0.13030905,inf,inf,inf,inf,1,1,1,1,2,0,2,1,4,0,1,1,1,0
610790389,610790068,45930887,42.3585499,-71.08724959999999,0.582937,-0.7677149,4.934456,0.0011367018,0.000111144094,0.0,0.05360461,0.087431334,0.013724546,0.013334767,0.00446994,-0.05826801,0.14515758,0.050673716,0.02436374,0.0988134,2.7050319,0.023883352,5.8776836,0.106451035,0.75733924,0.47106177,0.21142441,0.12737995,inf,inf,inf,inf,1,1,1,1,2,0,2,1,4,0,1,1,1,0
611290308,611290008,45930887,42.3585499,-71.08724959999999,0.5705386,-0.8359712,4.9470043,0.0011367018,0.000111144094,0.0,0.055455044,0.066598244,0.01120207,0.013377026,0.00446994,-0.05826801,0.14515758,-0.0066060103,0.044636354,0.10047991,2.7068858,0.023883352,5.8776836,0.1,0.7721474,0.47491115,0.22174014,0.12928367,inf,inf,inf,inf,1,1,1,1,2,0,2,1,4,0,1,1,1,0
611790305,611789947,45930887,42.3585499,-71.08724959999999,0.5645666,-0.87529564,4.955153,0.0011367018,0.000111144094,0.0,0.052578773,0.053907048,0.015760122,0.019575896,0.00446994,-0.05826801,0.14515758,0.0017574653,0.0071126637,0.23793991,2.7088437,0.023883352,5.8776836,0.1,0.749781,0.468216,0.21307568,0.12736118,inf,inf,inf,inf,1,1,1,1,2,0,2,1,4,0,1,1,1,0
612290241,612289887,45930887,42.3585499,-71.08724959999999,0.5680646,-0.9293743,4.961034,0.0011367018,0.000111144094,0.0,0.05396003,0.030276215,0.012105916,0.011542503,0.00446994,-0.05826801,0.14515758,0.00661843,-0.027261347,0.03413598,2.7101183,0.023883352,5.8776836,0.1,0.75544184,0.46930802,0.21556602,0.12783335,inf,inf,inf,inf,1,1,1,1,2,0,2,1,4,0,1,1,1,0
612790152,612789826,45930887,42.3585499,-71.08724959999999,0.5743976,-0.9896489,4.955476,0.0011367018,0.000111144094,0.0,0.051800467,0.013433113,0.016023101,0.004655843,0.00446994,-0.05826801,0.14515758,-0.038897544,-0.07846067,-0.2205266,2.7068028,0.023883352,5.8776836,0.1,0.73796326,0.46820527,0.210947,0.12720892,inf,inf,inf,inf,1,1,1,1,2,0,2,1,4,0,1,1,1,0
613290128,613289766,45930887,42.3585499,-71.08724959999999,0.629266,-1.0840971,4.946622,0.0011367018,0.000111144094,0.0,0.07157189,-0.023470089,0.014780767,-0.004580985,0.00446994,-0.05826801,0.14515758,0.018135311,0.0040392596,0.0053541292,2.7118373,0.023883352,5.8776836,0.1,0.7565069,0.47334662,0.22351788,0.12960209,inf,inf,inf,inf,1,1,1,1,2,0,2,1,4,0,1,1,1,0
613790091,613789705,45930887,42.3585499,-71.08724959999999,0.6743271,-1.2009758,4.931866,0.0011367018,0.000111144094,0.0,0.08764826,-0.042700127,0.019464497,-0.010502963,0.00446994,-0.05826801,0.14515758,-0.023764966,-0.0019127297,-0.13871768,2.7125916,0.023883352,5.8776836,0.1,0.7494721,0.47130144,0.22527629,0.12973566,inf,inf,inf,inf,1,1,1,1,2,0,2,1,4,0,1,1,1,0
614290002,614289644,45930887,42.3585499,-71.08724959999999,0.66280925,-1.2493296,4.9258795,0.0011367018,0.000111144094,0.0,0.0776995,-0.036379322,0.015261379,-0.0126593495,0.00446994,-0.05826801,0.14515758,0.023638843,0.0111067025,0.031191692,2.7136283,0.023883352,5.8776836,0.10095978,0.7726515,0.47681278,0.23781654,0.13196926,inf,inf,inf,inf,1,1,1,1,2,0,2,1,4,0,1,1,1,0
614790029,614789583,45930887,42.3585499,-71.08724959999999,0.64524883,-1.3195151,4.9104652,0.0011367018,0.000111144094,0.0,0.06447158,-0.03748185,0.0077700345,-0.024680326,0.00446994,-0.05826801,0.14515758,-0.04246295,0.03700513,-0.06505964,2.7143211,0.023883352,5.8776836,0.1,0.7653132,0.47902405,0.2368163,0.13238263,inf,inf,inf,inf,1,1,1,1,2,0,2,1,4,0,1,1,1,0
615289832,615289522,45930887,42.3585499,-71.08724959999999,0.6338701,-1.3797344,4.9220643,0.0011367018,0.000111144094,0.0,0.04849369,-0.049048528,0.0035357836,-0.0072053946,0.00446994,-0.05826801,0.14515758,-0.022478407,-0.000747806,0.11980463,2.7165794,0.023883352,5.8776836,0.11057711,0.77123386,0.48006284,0.23481451,0.13221376,inf,inf,inf,inf,1,1,1,1,2,0,2,1,4,0,1,1,1,0
615789876,615789461,45930887,42.3585499,-71.08724959999999,0.64285415,-1.4407164,4.9461555,0.0011367018,0.000111144094,0.0,0.037283737,-0.06427343,0.006419375,0.015766306,0.00446994,-0.05826801,0.14515758,-0.0157914,-0.050651215,0.09676737,2.7178874,0.023883352,5.8776836,0.10851574,0.75129133,0.4745389,0.22558711,0.1304179,inf,inf,inf,inf,1,1,1,1,2,0,2,1,4,0,1,1,1,0
616289757,616289399,45930887,42.3585499,-71.08724959999999,0.6834775,-1.4947702,4.9540386,0.0011367018,0.000111144094,0.0,0.043936178,-0.07584676,0.014449481,0.022582516,0.00446994,-0.05826801,0.14515758,-0.022058621,-0.021167904,0.21435404,2.719369,0.023883352,5.8776836,0.1,0.7605768,0.47635156,0.22778115,0.1308059,inf,inf,inf,inf,1,1,1,1,2,0,2,1,4,0,1,1,1,0
616789678,616789338,45930887,42.3585499,-71.08724959999999,0.7163628,-1.5538017,4.9713073,0.0011367018,0.000111144094,0.0,0.04426985,-0.07991854,0.0323683,0.037177794,0.00446994,-0.05826801,0.14515758,0.025699668,-0.0022362287,0.03596796,2.7203028,0.023883352,5.8776836,0.1,0.7487981,0.47728577,0.22547823,0.13077565,inf,inf,inf,inf,1,1,1,1,2,0,2,1,4,0,1,1,1,0
617289611,617289277,45930887,42.3585499,-71.08724959999999,0.70933497,-1.6039118,4.9789734,0.0011367018,0.000111144094,0.0,0.030396765,-0.07449106,0.05635452,0.047587063,0.00446994,-0.05826801,0.14515758,-0.04564244,0.021867877,0.2597344,2.721314,0.023883352,5.8776836,0.1,0.76776934,0.48146516,0.2342436,0.1322868,inf,inf,inf,inf,1,1,1,1,2,0,2,1,4,0,1,1,1,0
617789540,617789215,45930887,42.3585499,-71.08724959999999,0.67035294,-1.6556194,4.9892583,0.0011367018,0.000111144094,0.0,0.012584377,-0.06817369,0.044298977,0.02494548,0.00446994,-0.05826801,0.14515758,0.1463362,-0.065243825,-0.34559643,2.722556,0.023883352,5.8776836,0.1,0.7628023,0.47958532,0.23582757,0.13226375,inf,inf,inf,inf,1,1,1,1,2,0,2,1,4,0,1,1,1,0
618289503,618289153,45930887,42.3585499,-71.08724959999999,0.62660134,-1.7091699,4.99536,0.0011367018,0.000111144094,0.0,-0.0012580592,-0.06419252,0.052428935,0.028174965,0.00446994,-0.05826801,0.14515758,-0.0102122035,0.026835263,0.1767817,2.723606,0.023883352,5.8776836,0.1,0.7669205,0.47979835,0.2326822,0.1317782,inf,inf,inf,inf,1,1,1,1,2,0,2,1,4,0,1,1,1,0
618789436,618789092,45930887,42.3585499,-71.08724959999999,0.61113197,-1.68215,4.990732,0.0011367018,0.000111144094,0.0,0.0017285913,-0.02348236,0.02624086,-0.009461329,0.00446994,-0.05826801,0.14515758,-0.08324636,0.06548108,-0.20082292,2.7243793,0.023883352,5.8776836,0.1,0.7465144,0.4783799,0.22382733,0.13060218,inf,inf,inf,inf,1,1,1,1,2,0,2,1,4,0,1,1,1,0
619289438,619289029,45930887,42.3585499,-71.08724959999999,0.5885125,-1.7255353,4.9631634,0.0011367018,0.000111144094,0.0,-0.0051695877,-0.03683696,0.021283671,-0.030658785,0.00446994,-0.05826801,0.14515758,-0.025653958,-0.002615232,0.0806767,2.7224922,0.023883352,5.8776836,0.1,0.7436946,0.47664934,0.21836028,0.12946527,inf,inf,inf,inf,1,1,1,1,2,0,2,1,4,0,1,1,1,0
619789323,619788968,45930887,42.3585499,-71.08724959999999,0.57939816,-1.7608409,4.9455895,0.0011367018,0.000111144094,0.0,-0.010710726,-0.055028103,0.015484019,-0.03235528,0.00446994,-0.05826801,0.14515758,-0.0019504704,-0.044815857,0.10292944,2.7240715,0.023883352,5.8776836,0.10866308,0.72844934,0.47213843,0.2152299,0.1284831,inf,inf,inf,inf,1,1,1,1,2,0,2,1,4,0,1,1,1,0
620289208,620288906,45930887,42.3585499,-71.08724959999999,0.5927604,-1.7649605,4.9571753,0.0011367018,0.000111144094,0.0,-0.0038154465,-0.04370041,0.034082297,0.0049371235,0.00446994,-0.05826801,0.14515758,0.027193913,0.010296907,-0.093560696,2.7264116,0.023883352,5.8776836,0.10593653,0.7426256,0.47536698,0.22300659,0.12983121,inf,inf,inf,inf,1,1,1,1,2,0,2,1,4,0,1,1,1,0
620789146,620788844,45930887,42.3585499,-71.08724959999999,0.56551576,-1.7464497,4.9823265,0.0011367018,0.000111144094,0.0,-0.005736777,-0.014796,0.039412316,0.02717726,0.00446994,-0.05826801,0.14515758,-0.028982459,0.060592595,0.019476674,2.7263393,0.023883352,5.8776836,0.1028533,0.72635967,0.474786,0.2181499,0.12926146,inf,inf,inf,inf,1,1,1,1,2,0,2,1,4,0,1,1,1,0
621289199,621288781,45930887,42.3585499,-71.08724959999999,0.46980584,-1.6622916,4.974612,0.0011367018,0.000111144094,0.0,-0.033255436,0.03230244,0.027084094,-0.0008004142,0.00446994,-0.05826801,0.14515758,0.007244795,0.028263643,-0.21630241,2.7274776,0.023883352,5.8776836,0.1,0.7425619,0.47396678,0.22633135,0.1300596,inf,inf,inf,inf,1,1,1,1,2,0,2,1,4,0,1,1,1,0
621789067,621788719,45930887,42.3585499,-71.08724959999999,0.4072989,-1.5877395,4.9507146,0.0011367018,0.000111144094,0.0,-0.048773024,0.062121425,0.015142001,-0.028084278,0.00446994,-0.05826801,0.14515758,-0.01232014,0.009111848,0.10036301,2.72894,0.023883352,5.8776836,0.1,0.7331099,0.47529352,0.22563976,0.13033384,inf,inf,inf,inf,1,1,1,1,2,0,2,1,4,0,1,1,1,0
622289019,622288656,45930887,42.3585499,-71.08724959999999,0.38227716,-1.5393763,4.9318657,0.0011367018,0.000111144094,0.0,-0.043140195,0.08197841,0.0006797069,-0.0399935,0.00446994,-0.05826801,0.14515758,-0.008367561,0.043797463,0.15974434,2.729293,0.023883352,5.8776836,0.10535908,0.74977463,0.47867003,0.2326977,0.13156892,inf,inf,inf,inf,1,1,1,1,2,0,2,1,4,0,1,1,1,0
622788963,622788594,45930887,42.3585499,-71.08724959999999,0.36496484,-1.5074492,4.907787,0.0011367018,0.000111144094,0.0,-0.038213894,0.09983312,-0.002281081,-0.045341436,0.00446994,-0.05826801,0.14515758,0.033272732,0.06300021,-0.06838743,2.7299576,0.023883352,5.8776836,0.1,0.7390647,0.4796316,0.2300802,0.13156512,inf,inf,inf,inf,1,1,1,1,2,0,2,1,4,0,1,1,1,0
623288936,623288533,45930887,42.3585499,-71.08724959999999,0.37793672,-1.4900665,4.891253,0.0011367018,0.000111144094,0.0,-0.02027462,0.12754019,0.004202838,-0.032537933,0.00446994,-0.05826801,0.14515758,-0.012999385,0.10017858,0.057127938,2.7300425,0.023883352,5.8776836,0.10563946,0.75497013,0.47805378,0.235275,0.13180399,inf,inf,inf,inf,1,1,1,1,2,0,2,1,4,0,1,1,1,0
623788844,623788468,45930887,42.3585499,-71.08724959999999,0.369862,-1.5522912,4.8840156,0.0011367018,0.000111144094,0.0,-0.014043382,0.11091091,0.0066628205,-0.024239326,0.00446994,-0.05826801,0.14515758,0.028337063,0.040742073,-0.114902176,2.7302754,0.023883352,5.8776836,0.10242462,0.73805887,0.47728562,0.22710858,0.13089882,inf,inf,inf,inf,1,1,1,1,2,0,2,1,4,0,1,1,1,0
624288815,624288405,45930887,42.3585499,-71.08724959999999,0.3459147,-1.5576351,4.8598404,0.0011367018,0.000111144094,0.0,-0.025833918,0.11395157,0.006494042,-0.032595374,0.00446994,-0.05826801,0.14515758,-0.0033271513,0.030117411,0.0054228515,2.730851,0.023883352,5.8776836,0.10224533,0.74529356,0.47797513,0.2264307,0.13078988,inf,inf,inf,inf,1,1,1,1,2,0,2,1,4,0,1,1,1,0
624798655,624798341,45930887,42.3585499,-71.08724959999999,0.31487572,-1.5539584,4.8401318,0.0011367018,0.000111144094,0.0,-0.041065305,0.113308825,-0.012956869,-0.049747698,0.00446994,-0.05826801,0.14515758,-0.014930862,0.03504706,-0.08477297,2.7310011,0.023883352,5.8776836,0.10171175,0.7375714,0.4800199,0.22570382,0.1311117,inf,inf,inf,inf,1,1,1,1,2,0,2,1,4,0,1,1,1,0
625288589,625288279,45930887,42.3585499,-71.08724959999999,0.29502645,-1.5392721,4.829294,0.0011367018,0.000111144094,0.0,-0.036777068,0.12278929,-0.014099628,-0.038447015,0.00446994,-0.05826801,0.14515758,0.08259317,0.016823202,-0.094316706,2.7303638,0.023883352,5.8776836,0.11093855,0.7448559,0.48020604,0.22640009,0.13108441,inf,inf,inf,inf,1,1,1,1,2,0,2,1,4,0,1,1,1,0
625788517,625788215,45930887,42.3585499,-71.08724959999999,0.28051507,-1.4944525,4.830418,0.0011367018,0.000111144094,0.0,-0.026913892,0.14382431,-0.015463491,-0.023387082,0.00446994,-0.05826801,0.14515758,0.015704496,0.04118761,-0.039957162,2.7302775,0.023883352,5.8776836,0.11376047,0.7368785,0.47717953,0.2261353,0.13072348,inf,inf,inf,inf,1,1,1,1,2,0,2,1,4,0,1,1,1,0
626288464,626288152,45930887,42.3585499,-71.08724959999999,0.28428018,-1.4706802,4.8290195,0.0011367018,0.000111144094,0.0,-0.010160442,0.15280114,-0.0075094933,-0.010100797,0.00446994,-0.05826801,0.14515758,0.005697801,0.05174779,-0.024711655,2.73068,0.023883352,5.8776836,0.1076045,0.7572813,0.4812213,0.23510042,0.13224407,inf,inf,inf,inf,1,1,1,1,2,0,2,1,4,0,1,1,1,0
626788393,626788089,45930887,42.3585499,-71.08724959999999,0.2704129,-1.4769982,4.83339,0.0011367018,0.000111144094,0.0,-0.0071428493,0.14550713,-0.012156641,-0.0059821443,0.00446994,-0.05826801,0.14515758,-0.014718423,0.05590372,0.16335176,2.7309325,0.023883352,5.8776836,0.11325598,0.75024843,0.48303393,0.2344099,0.13258249,inf,inf,inf,inf,1,1,1,1,2,0,2,1,4,0,1,1,1,0
627288430,627288025,45930887,42.3585499,-71.08724959999999,0.29769635,-1.4823141,4.8426003,0.0011367018,0.000111144094,0.0,0.01723148,0.13945971,-0.0032254695,0.008493764,0.00446994,-0.05826801,0.14515758,0.055915445,0.031737793,-0.053823363,2.7312326,0.023883352,5.8776836,0.102648735,0.774215,0.4828489,0.24410425,0.13343097,inf,inf,inf,inf,1,1,1,1,2,0,2,1,4,0,1,1,1,0
627788314,627787961,45930887,42.3585499,-71.08724959999999,0.32939067,-1.4687294,4.846724,0.0011367018,0.000111144094,0.0,0.036046777,0.14578027,-0.0067844684,0.005050112,0.00446994,-0.05826801,0.14515758,0.075359374,0.030458447,-0.053978268,2.7317524,0.023883352,5.8776836,0.10143852,0.77224547,0.48572257,0.24566853,0.1341511,inf,inf,inf,inf,1,1,1,1,2,0,2,1,4,0,1,1,1,0
628298267,628297896,45930887,42.3585499,-71.08724959999999,0.36094028,-1.4538128,4.8486333,0.0011367018,0.000111144094,0.0,0.05705178,0.1527517,-0.0016457778,0.006924059,0.00446994,-0.05826801,0.14515758,0.014244136,0.06270649,-0.015121733,2.7318573,0.023883352,5.8776836,0.103957176,0.7968443,0.49050862,0.2533874,0.13543536,inf,inf,inf,inf,1,1,1,1,2,0,2,1,4,0,1,1,1,0
628788225,628787834,45930887,42.3585499,-71.08724959999999,0.39717814,-1.4907658,4.855365,0.0011367018,0.000111144094,0.0,0.074230105,0.13849096,0.007544195,0.016906586,0.00446994,-0.05826801,0.14515758,0.046246644,0.040219758,-0.00989223,2.7321324,0.023883352,5.8776836,0.103161335,0.7808828,0.48987228,0.24572991,0.13469897,inf,inf,inf,inf,1,1,1,1,2,0,2,1,4,0,1,1,1,0
629288124,629287769,45930887,42.3585499,-71.08724959999999,0.43971634,-1.5675594,4.864232,0.0011367018,0.000111144094,0.0,0.08779062,0.107617475,0.008880311,0.01760548,0.00446994,-0.05826801,0.14515758,-0.010195932,0.050911725,-0.026907988,2.7324805,0.023883352,5.8776836,0.1,0.7938725,0.48683485,0.246782,0.13411394,inf,inf,inf,inf,1,1,1,1,2,0,2,1,4,0,1,1,1,0
629788052,629787705,45930887,42.3585499,-71.08724959999999,0.43185097,-1.5955034,4.857737,0.0011367018,0.000111144094,0.0,0.079810865,0.09862873,-0.0011367033,-0.0021551985,0.00446994,-0.05826801,0.14515758,0.03389888,0.023605587,-0.09473521,2.732584,0.023883352,5.8776836,0.1,0.78056204,0.4872733,0.24155916,0.13371874,inf,inf,inf,inf,1,1,1,1,2,0,2,1,4,0,1,1,1,0
630287950,630287641,45930887,42.3585499,-71.08724959999999,0.40442744,-1.6223135,4.8628173,0.0011367018,0.000111144094,0.0,0.06996252,0.08791532,0.0018067383,0.004473659,0.00446994,-0.05826801,0.14515758,0.016906226,0.038661703,-0.03724102,2.7325017,0.023883352,5.8776836,0.10283804,0.79435813,0.48910168,0.24425827,0.13406143,inf,inf,inf,inf,1,1,1,1,2,0,2,1,4,0,1,1,1,0
630787913,630787577,45930887,42.3585499,-71.08724959999999,0.33574432,-1.6223271,4.8628807,0.0011367018,0.000111144094,0.0,0.047778223,0.09499119,0.009727176,0.00928942,0.00446994,-0.05826801,0.14515758,0.023267329,0.040658083,0.046626,2.7325156,0.023883352,5.8776836,0.1,0.7863134,0.4905656,0.2431386,0.13424484,inf,inf,inf,inf,1,1,1,1,2,0,2,1,4,0,1,1,1,0
631288222,631287512,45930887,42.3585499,-71.08724959999999,0.2554286,-1.5871193,4.8460755,0.0011367018,0.000111144094,0.0,0.027276289,0.11492636,0.005403508,-0.012149359,0.00446994,-0.05826801,0.14515758,0.062294375,0.03586382,-0.30220827,2.7327242,0.023883352,5.8776836,0.1,0.7804814,0.48764583,0.24292171,0.1338414,inf,inf,inf,inf,1,1,1,1,2,0,2,1,4,0,1,1,1,0
631797753,631797446,45930887,42.3585499,-71.08724959999999,0.11762781,-1.5149243,4.8421507,0.0011367018,0.000111144094,0.0,-0.0107225785,0.14389542,0.00952994,-0.006604519,0.00446994,-0.05826801,0.14515758,0.013492493,0.04801684,-0.027929027,2.732959,0.023883352,5.8776836,0.1,0.80839366,0.49275157,0.25324768,0.13541447,inf,inf,inf,inf,1,1,1,1,2,0,2,1,4,0,1,1,1,0
632287689,632287383,45930887,42.3585499,-71.08724959999999,0.030574791,-1.5060502,4.830117,0.0011367018,0.000111144094,0.0,-0.024231799,0.13868806,-0.001422628,-0.022504067,0.00446994,-0.05826801,0.14515758,0.047327254,0.010622736,0.021530595,2.733193,0.023883352,5.8776836,0.1,0.82597035,0.4942412,0.25731623,0.1358163,inf,inf,inf,inf,1,1,1,1,2,0,2,1,4,0,1,1,1,0
632787691,632787318,45930887,42.3585499,-71.08724959999999,-0.052516244,-1.550213,4.804185,0.0011367018,0.000111144094,0.0,-0.03843625,0.10945801,-0.013770274,-0.042208415,0.00446994,-0.05826801,0.14515758,0.012514526,0.0029379716,-0.022312976,2.7327988,0.023883352,5.8776836,0.1,0.81243366,0.49467626,0.25166002,0.1354519,inf,inf,inf,inf,1,1,1,1,2,0,2,1,4,0,1,1,1,0
633287639,633287253,45930887,42.3585499,-71.08724959999999,-0.09124056,-1.5663805,4.772355,0.0011367018,0.000111144094,0.0,-0.0377397,0.097069964,-0.023602257,-0.056741826,0.00446994,-0.05826801,0.14515758,-0.054267973,0.04318916,0.10415125,2.7328265,0.023883352,5.8776836,0.10602379,0.8207501,0.49018657,0.24971083,0.1343586,inf,inf,inf,inf,1,1,1,1,2,0,2,1,4,0,1,1,1,0
633787536,633787188,45930887,42.3585499,-71.08724959999999,-0.12411817,-1.5928426,4.76919,0.0011367018,0.000111144094,0.0,-0.03139099,0.081804596,-0.020093009,-0.031297427,0.00446994,-0.05826801,0.14515758,0.027068162,0.0137775205,-0.0113950055,2.7329433,0.023883352,5.8776836,0.112568855,0.81234807,0.49139312,0.24813218,0.13448653,inf,inf,inf,inf,1,1,1,1,2,0,2,1,4,0,1,1,1,0
634297778,634297122,45930887,42.3585499,-71.08724959999999,-0.17848943,-1.6509233,4.76564,0.0011367018,0.000111144094,0.0,-0.033336762,0.06423919,-0.011160232,-0.014519308,0.00446994,-0.05826801,0.14515758,-0.00808898,-0.012663257,0.12839746,2.7329123,0.023883352,5.8776836,0.10837269,0.8043199,0.49342778,0.2461025,0.13470027,inf,inf,inf,inf,1,1,1,1,2,0,2,1,4,0,1,1,1,0
634797416,634797057,45930887,42.3585499,-71.08724959999999,-0.22866978,-1.7003815,4.7633724,0.0011367018,0.000111144094,0.0,-0.035074513,0.05583719,-0.009799776,-0.010536451,0.00446994,-0.05826801,0.14515758,0.02583077,0.010516902,-0.0017697777,2.7328758,0.023883352,5.8776836,0.10176563,0.82774806,0.4918486,0.25450984,0.1350461,inf,inf,inf,inf,1,1,1,1,2,0,2,1,4,0,1,1,1,0
635297577,635296991,45930887,42.3585499,-71.08724959999999,-0.2641516,-1.7214564,4.7520742,0.0011367018,0.000111144094,0.0,-0.030181024,0.050041948,-0.013681554,-0.01910102,0.00446994,-0.05826801,0.14515758,0.025596468,-0.007357071,-0.09861958,2.7328446,0.023883352,5.8776836,0.1,0.8032598,0.48997846,0.24261104,0.13373211,inf,inf,inf,inf,1,1,1,1,2,0,2,1,4,0,1,1,1,0
635787281,635786927,45930887,42.3585499,-71.08724959999999,-0.34920356,-1.747611,4.732904,0.0011367018,0.000111144094,0.0,-0.04529393,0.03988741,-0.03094274,-0.041477192,0.00446994,-0.05826801,0.14515758,0.030358518,-0.0038532813,-0.2478531,2.7333288,0.023883352,5.8776836,0.1,0.82343775,0.4921209,0.25025117,0.13465138,inf,inf,inf,inf,1,1,1,1,2,0,2,1,4,0,1,1,1,0
636287210,636286861,45930887,42.3585499,-71.08724959999999,-0.43031502,-1.7556525,4.7176533,0.0011367018,0.000111144094,0.0,-0.053679105,0.040822744,-0.03781731,-0.040574588,0.00446994,-0.05826801,0.14515758,-0.017066656,0.026241016,-0.11442789,2.733,0.023883352,5.8776836,0.11134863,0.84703374,0.49534863,0.2586643,0.13575633,inf,inf,inf,inf,1,1,1,1,2,0,2,1,4,0,1,1,1,0
636787135,636786796,45930887,42.3585499,-71.08724959999999,-0.53016984,-1.7526401,4.694563,0.0011367018,0.000111144094,0.0,-0.06005568,0.042015195,-0.039034434,-0.041948143,0.00446994,-0.05826801,0.14515758,0.11609672,-0.016848812,0.05417631,2.7324905,0.023883352,5.8776836,0.10719538,0.8445724,0.49781105,0.2605829,0.13642764,inf,inf,inf,inf,1,1,1,1,2,0,2,1,4,0,1,1,1,0
637297530,637296729,45930887,42.3585499,-71.08724959999999,-0.5555262,-1.7949947,4.682602,0.0011367018,0.000111144094,0.0,-0.040259507,0.031957414,-0.025657726,-0.024598777,0.00446994,-0.05826801,0.14515758,-0.017550299,0.034937933,0.01766127,2.7321737,0.023883352,5.8776836,0.10440922,0.8401328,0.49570823,0.25983077,0.13614734,inf,inf,inf,inf,1,1,1,1,2,0,2,1,4,0,1,1,1,0
637796990,637796663,45930887,42.3585499,-71.08724959999999,-0.54740334,-1.8124646,4.6728263,0.0011367018,0.000111144094,0.0,-0.010104932,0.03738367,-0.02744022,-0.025955044,0.00446994,-0.05826801,0.14515758,0.09804056,0.00039080338,-0.24343808,2.731981,0.023883352,5.8776836,0.105257034,0.8570187,0.49765733,0.2628632,0.13652831,inf,inf,inf,inf,1,1,1,1,2,0,2,1,4,0,1,1,1,0
638296913,638296597,45930887,42.3585499,-71.08724959999999,-0.5710838,-1.8411268,4.684439,0.0011367018,0.000111144094,0.0,-0.0043368214,0.02749909,-0.019862132,-0.00050044904,0.00446994,-0.05826801,0.14515758,-0.05691175,0.058211796,0.36539686,2.731698,0.023883352,5.8776836,0.11582661,0.8809708,0.5006719,0.2700057,0.137407,inf,inf,inf,inf,1,1,1,1,2,0,2,1,4,0,1,1,1,0
638796837,638796531,45930887,42.3585499,-71.08724959999999,-0.64972234,-1.8289295,4.705043,0.0011367018,0.000111144094,0.0,-0.013971475,0.03240767,-0.02584644,0.008806176,0.00446994,-0.05826801,0.14515758,0.011058966,0.0007869958,0.07533653,2.731498,0.023883352,5.8776836,0.11267948,0.8694141,0.49671695,0.26624867,0.13657358,inf,inf,inf,inf,1,1,1,1,2,0,2,1,4,0,1,1,1,0
639286803,639286466,45930887,42.3585499,-71.08724959999999,-0.6805584,-1.8378474,4.722296,0.0011367018,0.000111144094,0.0,-0.0076641254,0.02529428,-0.027514052,0.016620059,0.00446994,-0.05826801,0.14515758,0.02656267,0.0049103936,0.114296556,2.731493,0.023883352,5.8776836,0.10820532,0.8881778,0.4981548,0.27102077,0.13700607,inf,inf,inf,inf,1,1,1,1,2,0,2,1,4,0,1,1,1,0
639786764,639786399,45930887,42.3585499,-71.08724959999999,-0.6919639,-1.8328891,4.746568,0.0011367018,0.000111144094,0.0,0.01105761,0.02958207,-0.0049547125,0.04667928,0.00446994,-0.05826801,0.14515758,-0.005727012,-0.06034524,-0.03983736,2.7316933,0.023883352,5.8776836,0.108552456,0.85729986,0.49616903,0.25616857,0.13557754,inf,inf,inf,inf,1,1,1,1,2,0,2,1,4,0,1,1,1,0
640296721,640296332,45930887,42.3585499,-71.08724959999999,-0.7013253,-1.8756955,4.7624974,0.0011367018,0.000111144094,0.0,0.030982971,0.029421167,0.0070975027,0.04826164,0.00446994,-0.05826801,0.14515758,0.056011762,0.01799682,0.07050066,2.730846,0.023883352,5.8776836,0.1,0.8425385,0.48808804,0.24098969,0.13270906,inf,inf,inf,inf,1,1,1,1,2,0,2,1,4,0,1,1,1,0
640796632,640796265,45930887,42.3585499,-71.08724959999999,-0.7524934,-1.8922668,4.774338,0.0011367018,0.000111144094,0.0,0.037849322,0.044599526,0.013941873,0.040323913,0.00446994,-0.05826801,0.14515758,0.08884286,0.038921896,0.0053219446,2.7301953,0.023883352,5.8776836,0.1,0.826612,0.48802885,0.23846613,0.13255703,inf,inf,inf,inf,1,1,1,1,2,0,2,1,4,0,1,1,1,0
641296505,641296198,45930887,42.3585499,-71.08724959999999,-0.8349043,-1.8502661,4.774049,0.0011367018,0.000111144094,0.0,0.027847508,0.07775503,0.015567248,0.024746781,0.00446994,-0.05826801,0.14515758,0.076814584,0.03284457,-0.01650875,2.7296395,0.023883352,5.8776836,0.1,0.8340695,0.4885374,0.23995423,0.13267267,inf,inf,inf,inf,1,1,1,1,2,0,2,1,4,0,1,1,1,0
641796612,641796132,45930887,42.3585499,-71.08724959999999,-0.8717924,-1.8376688,4.790002,0.0011367018,0.000111144094,0.0,0.032742444,0.08703873,-0.00040454275,0.01460667,0.00446994,-0.05826801,0.14515758,-0.013298278,0.07277458,0.30735612,2.7289383,0.023883352,5.8776836,0.1,0.7951358,0.48287052,0.22190829,0.12992355,inf,inf,inf,inf,1,1,1,1,2,0,2,1,4,0,1,1,1,0
642296515,642296065,45930887,42.3585499,-71.08724959999999,-0.90802425,-1.8327707,4.776195,0.0011367018,0.000111144094,0.0,0.035548568,0.08485986,0.009433154,0.0025604616,0.00446994,-0.05826801,0.14515758,0.030886998,0.053672384,-0.024043003,2.728545,0.023883352,5.8776836,0.1,0.80657625,0.4802908,0.22897731,0.13033037,inf,inf,inf,inf,1,1,1,1,2,0,2,1,4,0,1,1,1,0
642786364,642785999,45930887,42.3585499,-71.08724959999999,-0.95897394,-1.8085431,4.758968,0.0011367018,0.000111144094,0.0,0.032277815,0.09353758,0.0045274966,-0.0125651555,0.00446994,-0.05826801,0.14515758,0.06553553,0.049933642,0.0134438705,2.7282803,0.023883352,5.8776836,0.1,0.7854949,0.4782622,0.22416086,0.12966327,inf,inf,inf,inf,1,1,1,1,2,0,2,1,4,0,1,1,1,0
643286284,643285932,45930887,42.3585499,-71.08724959999999,-0.9940999,-1.7929198,4.7451944,0.0011367018,0.000111144094,0.0,0.03518561,0.09569638,0.012798543,-0.013060634,0.00446994,-0.05826801,0.14515758,0.05836561,-0.0036091353,-0.07133178,2.7277277,0.023883352,5.8776836,0.1,0.79324704,0.47953728,0.22809945,0.13032095,inf,inf,inf,inf,1,1,1,1,2,0,2,1,4,0,1,1,1,0
643796165,643795863,45930887,42.3585499,-71.08724959999999,-1.0149916,-1.7909412,4.7316637,0.0011367018,0.000111144094,0.0,0.039242934,0.090672135,0.0067405235,-0.02098037,0.00446994,-0.05826801,0.14515758,-0.0037836935,0.06848234,0.025235644,2.7275062,0.023883352,5.8776836,0.1,0.7781033,0.48024827,0.22602494,0.13038427,inf,inf,inf,inf,1,1,1,1,2,0,2,1,4,0,1,1,1,0
644296155,644295796,45930887,42.3585499,-71.08724959999999,-1.0043452,-1.8032109,4.720928,0.0011367018,0.000111144094,0.0,0.05121368,0.0757531,0.0015911366,-0.025385883,0.00446994,-0.05826801,0.14515758,0.08153649,-0.019660031,-0.08547886,2.7271876,0.023883352,5.8776836,0.1,0.7916436,0.483043,0.23351334,0.13167483,inf,inf,inf,inf,1,1,1,1,2,0,2,1,4,0,1,1,1,0
644796072,644795728,45930887,42.3585499,-71.08724959999999,-0.9697815,-1.8343983,4.7058024,0.0011367018,0.000111144094,0.0,0.06619006,0.04738414,-0.010633757,-0.032417737,0.00446994,-0.05826801,0.14515758,0.039465226,-0.04378265,-0.024998425,2.726776,0.023883352,5.8776836,0.10814047,0.77867806,0.4792488,0.2321614,0.13117795,inf,inf,inf,inf,1,1,1,1,2,0,2,1,4,0,1,1,1,0
645295982,645295661,45930887,42.3585499,-71.08724959999999,-0.941275,-1.8459257,4.701933,0.0011367018,0.000111144094,0.0,0.06588636,0.023850614,-0.01574898,-0.026486116,0.00446994,-0.05826801,0.14515758,0.01725469,0.0035606131,0.08204168,2.7265885,0.023883352,5.8776836,0.10760212,0.792041,0.48186758,0.23794325,0.13219906,inf,inf,inf,inf,1,1,1,1,2,0,2,1,4,0,1,1,1,0
645795999,645795593,45930887,42.3585499,-71.08724959999999,-0.88011026,-1.8617892,4.704808,0.0011367018,0.000111144094,0.0,0.07772622,0.01184545,-0.0072788177,-0.0047119763,0.00446994,-0.05826801,0.14515758,0.032744784,0.008809137,0.0069969436,2.726143,0.023883352,5.8776836,0.11040497,0.7726691,0.48114333,0.23101209,0.13152923,inf,inf,inf,inf,1,1,1,1,2,0,2,1,4,0,1,1,1,0
646285959,646285527,45930887,42.3585499,-71.08724959999999,-0.84462136,-1.848426,4.704888,0.0011367018,0.000111144094,0.0,0.076489724,0.016756993,-0.009234317,-0.0068967394,0.00446994,-0.05826801,0.14515758,0.01863726,0.016723504,-0.039502993,2.7256007,0.023883352,5.8776836,0.10043335,0.78402394,0.48278522,0.23591557,0.13229644,inf,inf,inf,inf,1,1,1,1,2,0,2,1,4,0,1,1,1,0
646795846,646795457,45930887,42.3585499,-71.08724959999999,-0.7761184,-1.8564779,4.718497,0.0011367018,0.000111144094,0.0,0.087632,0.008600809,-0.0027976853,0.012289244,0.00446994,-0.05826801,0.14515758,0.00039232906,0.0025998643,0.06313414,2.7250524,0.023883352,5.8776836,0.113348484,0.7586692,0.47656763,0.22385275,0.13014203,inf,inf,inf,inf,1,1,1,1,2,0,2,1,4,0,1,1,1,0
647296120,647295389,45930887,42.3585499,-71.08724959999999,-0.70582277,-1.8447278,4.734308,0.0011367018,0.000111144094,0.0,0.09272612,0.008035161,-0.007892108,0.012508846,0.00446994,-0.05826801,0.14515758,0.025208184,0.0027506927,-0.014151675,2.724528,0.023883352,5.8776836,0.10413456,0.7318586,0.47296262,0.21113028,0.12809084,inf,inf,inf,inf,1,1,1,1,2,0,2,1,4,0,1,1,1,0
647795635,647795321,45930887,42.3585499,-71.08724959999999,-0.65121084,-1.8075647,4.734034,0.0011367018,0.000111144094,0.0,0.087884404,0.011574702,-0.01053902,0.0044891755,0.00446994,-0.05826801,0.14515758,-0.024049163,0.0074999603,0.04621433,2.7236254,0.023883352,5.8776836,0.1,0.7392745,0.47447485,0.2149038,0.12872715,inf,inf,inf,inf,1,1,1,1,2,0,2,1,4,0,1,1,1,0
648295691,648295253,45930887,42.3585499,-71.08724959999999,-0.59908223,-1.7663585,4.7267118,0.0011367018,0.000111144094,0.0,0.086791605,0.014827565,-0.014166103,-0.0060985587,0.00446994,-0.05826801,0.14515758,-0.015287588,-0.0061784717,0.054983687,2.7230303,0.023883352,5.8776836,0.1,0.747597,0.47193927,0.2192332,0.12884998,inf,inf,inf,inf,1,1,1,1,2,0,2,1,4,0,1,1,1,0
648795525,648795184,45930887,42.3585499,-71.08724959999999,-0.55046135,-1.7370749,4.716606,0.0011367018,0.000111144094,0.0,0.080623984,0.015728405,-0.0109211635,-0.008391344,0.00446994,-0.05826801,0.14515758,0.027089521,-0.00717226,0.08815055,2.7223976,0.023883352,5.8776836,0.103940964,0.7274969,0.47031978,0.21258934,0.12788829,inf,inf,inf,inf,1,1,1,1,2,0,2,1,4,0,1,1,1,0
649295437,649295116,45930887,42.3585499,-71.08724959999999,-0.51066667,-1.7195402,4.717104,0.0011367018,0.000111144094,0.0,0.07483657,0.0070832847,-0.0123688895,-0.00664323,0.00446994,-0.05826801,0.14515758,0.015791867,-0.013897929,0.051202722,2.7219453,0.023883352,5.8776836,0.1,0.73109704,0.47072366,0.21350719,0.12800314,inf,inf,inf,inf,1,1,1,1,2,0,2,1,4,0,1,1,1,0
649795389,649795047,45930887,42.3585499,-71.08724959999999,-0.44875506,-1.6892745,4.719135,0.0011367018,0.000111144094,0.0,0.07422097,0.005982524,-0.0104983235,-0.0019590743,0.00446994,-0.05826801,0.14515758,0.024254687,-0.012013345,-0.032791704,2.7213392,0.023883352,5.8776836,0.10045004,0.7129703,0.46960238,0.2091524,0.12738632,inf,inf,inf,inf,1,1,1,1,2,0,2,1,4,0,1,1,1,0
650295338,650294978,45930887,42.3585499,-71.08724959999999,-0.35941854,-1.6594343,4.712822,0.0011367018,0.000111144094,0.0,0.08760997,-0.00086665066,-0.015864888,-0.010329258,0.00446994,-0.05826801,0.14515758,-0.014848285,0.0069042207,-0.04709847,2.7210436,0.023883352,5.8776836,0.10069704,0.7251914,0.46873638,0.21726662,0.12832537,inf,inf,inf,inf,1,1,1,1,2,0,2,1,4,0,1,1,1,0
650795252,650794910,45930887,42.3585499,-71.08724959999999,-0.27108574,-1.6376137,4.726148,0.0011367018,0.000111144094,0.0,0.08961916,-0.0058715977,0.0014663809,0.017538572,0.00446994,-0.05826801,0.14515758,0.0063094795,-0.0073252893,-0.010016804,2.7205155,0.023883352,5.8776836,0.1,0.70607597,0.46739942,0.21108373,0.12748314,inf,inf,inf,inf,1,1,1,1,2,0,2,1,4,0,1,1,1,0
651295226,651294841,45930887,42.3585499,-71.08724959999999,-0.17844862,-1.634255,4.7225556,0.0011367018,0.000111144094,0.0,0.093205705,-0.015762579,-0.0021956968,0.0030109803,0.00446994,-0.05826801,0.14515758,-0.032779798,0.00976345,0.007975114,2.7197516,0.023883352,5.8776836,0.1,0.7169295,0.47026974,0.21728593,0.12871459,inf,inf,inf,inf,1,1,1,1,2,0,2,1,4,0,1,1,1,0
651795071,651794772,45930887,42.3585499,-71.08724959999999,-0.09979781,-1.6088209,4.7096663,0.0011367018,0.000111144094,0.0,0.09324957,-0.01706031,0.00055363827,-0.007108422,0.00446994,-0.05826801,0.14515758,0.027936473,-0.03419335,-0.010689565,2.7191072,0.023883352,5.8776836,0.1,0.705131,0.47131655,0.2157424,0.12888138,inf,inf,inf,inf,1,1,1,1,2,0,2,1,4,0,1,1,1,0
652295138,652294702,45930887,42.3585499,-71.08724959999999,-0.056778368,-1.6057218,4.6992497,0.0011367018,0.000111144094,0.0,0.07908123,-0.028065236,-0.012769058,-0.022607772,0.00446994,-0.05826801,0.14515758,-0.003674829,-0.021701096,-0.0868765,2.718436,0.023883352,5.8776836,0.1,0.6979057,0.4640475,0.20665845,0.12646066,inf,inf,inf,inf,1,1,1,1,2,0,2,1,4,0,1,1,1,0
652794957,652794633,45930887,42.3585499,-71.08724959999999,-0.05549505,-1.5610228,4.6832,0.0011367018,0.000111144094,0.0,0.046430808,-0.020158442,-0.008272205,-0.021258928,0.00446994,-0.05826801,0.14515758,-0.0084695965,-0.035482373,-0.018127402,2.7178152,0.023883352,5.8776836,0.104699135,0.6765795,0.46142688,0.19889903,0.12503365,inf,inf,inf,inf,1,1,1,1,2,0,2,1,4,0,1,1,1,0
653294893,653294564,45930887,42.3585499,-71.08724959999999,-0.03426303,-1.5044652,4.681593,0.0011367018,0.000111144094,0.0,0.034263,-0.010273989,-0.0081720045,-0.013318667,0.00446994,-0.05826801,0.14515758,-0.00077062903,-0.014907785,-0.0010757679,2.717331,0.023883352,5.8776836,0.10159969,0.6878837,0.4648343,0.20708756,0.12670135,inf,inf,inf,inf,1,1,1,1,2,0,2,1,4,0,1,1,1,0
653794850,653794494,45930887,42.3585499,-71.08724959999999,0.026048094,-1.4629564,4.6881623,0.0011367018,0.000111144094,0.0,0.03921277,-0.010570118,0.0045973402,0.0059674056,0.00446994,-0.05826801,0.14515758,0.013365039,-0.037886836,-0.008105848,2.7168436,0.023883352,5.8776836,0.1,0.67176974,0.46401623,0.2028896,0.12613043,inf,inf,inf,inf,1,1,1,1,2,0,2,1,4,0,1,1,1,0
654294737,654294424,45930887,42.3585499,-71.08724959999999,0.08386258,-1.4305403,4.6860075,0.0011367018,0.000111144094,0.0,0.04114428,-0.015776902,-0.008342082,-0.008160755,0.00446994,-0.05826801,0.14515758,-0.014542974,-0.030706,-0.047222894,2.7162359,0.023883352,5.8776836,0.1,0.684426,0.46360034,0.21090496,0.12719952,inf,inf,inf,inf,1,1,1,1,2,0,2,1,4,0,1,1,1,0
654794752,654794354,45930887,42.3585499,-71.08724959999999,0.07958783,-1.3797096,4.660487,0.0011367018,0.000111144094,0.0,0.017828975,-0.010565596,-0.015726995,-0.03072209,0.00446994,-0.05826801,0.14515758,-0.03247275,-0.032214712,0.0048704552,2.7157423,0.023883352,5.8776836,0.1,0.67383206,0.46474904,0.20979372,0.12741573,inf,inf,inf,inf,1,1,1,1,2,0,2,1,4,0,1,1,1,0
655294598,655294286,45930887,42.3585499,-71.08724959999999,0.085483864,-1.3540126,4.6297536,0.0011367018,0.000111144094,0.0,0.010899768,-0.016516868,-0.020340612,-0.044342585,0.00446994,-0.05826801,0.14515758,-0.018630505,0.00702832,0.058905903,2.7153924,0.023883352,5.8776836,0.1,0.6971064,0.47120735,0.22382808,0.13020472,inf,inf,inf,inf,1,1,1,1,2,0,2,1,4,0,1,1,1,0
655794667,655794215,45930887,42.3585499,-71.08724959999999,0.106255025,-1.3320028,4.6146097,0.0011367018,0.000111144094,0.0,0.011022233,-0.021498902,-0.016712354,-0.03478002,0.00446994,-0.05826801,0.14515758,0.03577438,-0.15432054,-0.025249362,2.71479,0.023883352,5.8776836,0.107020855,0.698895,0.47591949,0.22961469,0.13183954,inf,inf,inf,inf,1,1,1,1,2,0,2,1,4,0,1,1,1,0
656294459,656294144,45930887,42.3585499,-71.08724959999999,0.16564852,-1.3359056,4.6135054,0.0011367018,0.000111144094,0.0,0.028680842,-0.03477736,-0.009992317,-0.015495416,0.00446994,-0.05826801,0.14515758,0.0007170265,-0.015165255,-0.0050049373,2.7145307,0.023883352,5.8776836,0.106423855,0.7036856,0.47220844,0.22541857,0.13067889,inf,inf,inf,inf,1,1,1,1,2,0,2,1,4,0,1,1,1,0
656794375,656794074,45930887,42.3585499,-71.08724959999999,0.1900241,-1.3242651,4.6184883,0.0011367018,0.000111144094,0.0,0.023390392,-0.0374637,-0.01598426,-0.010422687,0.00446994,-0.05826801,0.14515758,0.028885376,-0.030253885,0.044251345,2.7143598,0.023883352,5.8776836,0.10160303,0.68692344,0.47134238,0.21656443,0.12952587,inf,inf,inf,inf,1,1,1,1,2,0,2,1,4,0,1,1,1,0
657294362,657294004,45930887,42.3585499,-71.08724959999999,0.21498871,-1.2954873,4.601645,0.0011367018,0.000111144094,0.0,0.02381757,-0.033726715,-0.019144297,-0.0241276,0.00446994,-0.05826801,0.14515758,-0.00066311745,-0.02669923,-0.008550968,2.7140903,0.023883352,5.8776836,0.1,0.6963423,0.4728889,0.21812162,0.12975273,inf,inf,inf,inf,1,1,1,1,2,0,2,1,4,0,1,1,1,0
657794293,657793933,45930887,42.3585499,-71.08724959999999,0.21948443,-1.2264488,4.5933495,0.0011367018,0.000111144094,0.0,0.013956398,-0.015522969,-0.017509999,-0.018402906,0.00446994,-0.05826801,0.14515758,-0.034934796,-0.009851604,-0.025526265,2.7138243,0.023883352,5.8776836,0.10967302,0.6873455,0.46965712,0.216062,0.12909341,inf,inf,inf,inf,1,1,1,1,2,0,2,1,4,0,1,1,1,0
658294220,658293863,45930887,42.3585499,-71.08724959999999,0.19927713,-1.1653029,4.593596,0.0011367018,0.000111144094,0.0,-0.0020859453,0.0018059844,-0.009819055,-0.005242524,0.00446994,-0.05826801,0.14515758,3.3601344e-05,-0.01400153,0.020264825,2.7135646,0.023883352,5.8776836,0.104352,0.70763016,0.4740994,0.22517191,0.13072713,inf,inf,inf,inf,1,1,1,1,2,0,2,1,4,0,1,1,1,0
658794159,658793792,45930887,42.3585499,-71.08724959999999,0.17050326,-1.0999442,4.5894575,0.0011367018,0.000111144094,0.0,-0.018484665,0.016769474,-0.011837432,-0.008729822,0.00446994,-0.05826801,0.14515758,-0.04466209,0.014812391,0.048571654,2.7129872,0.023883352,5.8776836,0.1,0.701192,0.475985,0.22421236,0.1309933,inf,inf,inf,inf,1,1,1,1,2,0,2,1,4,0,1,1,1,0
659294024,659293721,45930887,42.3585499,-71.08724959999999,0.15184739,-1.0448505,4.5824165,0.0011367018,0.000111144094,0.0,-0.030360231,0.018072879,-0.011314168,-0.009672926,0.00446994,-0.05826801,0.14515758,-0.016395241,-0.026958363,-0.02364515,2.7125816,0.023883352,5.8776836,0.105957985,0.70577824,0.47606817,0.22115456,0.13041814,inf,inf,inf,inf,1,1,1,1,2,0,2,1,4,0,1,1,1,0
659794094,659793650,45930887,42.3585499,-71.08724959999999,0.15918416,-0.997673,4.5879254,0.0011367018,0.000111144094,0.0,-0.033855222,0.009258788,-0.0071984376,0.0013364645,0.00446994,-0.05826801,0.14515758,0.015539465,-0.04916867,0.024940675,2.7125766,0.023883352,5.8776836,0.100916386,0.6930803,0.4718259,0.21705616,0.1293296,inf,inf,inf,inf,1,1,1,1,2,0,2,1,4,0,1,1,1,0
660294120,660293579,45930887,42.3585499,-71.08724959999999,0.16468376,-0.94654673,4.5966516,0.0011367018,0.000111144094,0.0,-0.03896038,0.0025815184,-0.002082195,0.010707296,0.00446994,-0.05826801,0.14515758,-0.032741014,-0.033511154,0.03008909,2.71244,0.023883352,5.8776836,0.1,0.70886195,0.4749946,0.22350457,0.13043529,inf,inf,inf,inf,1,1,1,1,2,0,2,1,4,0,1,1,1,0
660793833,660793508,45930887,42.3585499,-71.08724959999999,0.17372084,-0.9222614,4.5993114,0.0011367018,0.000111144094,0.0,-0.03614889,-0.008600584,9.587748e-05,0.0096627055,0.00446994,-0.05826801,0.14515758,0.026827402,-0.029434284,-0.032293785,2.7121232,0.023883352,5.8776836,0.10586119,0.6856789,0.47210777,0.21261407,0.1286637,inf,inf,inf,inf,1,1,1,1,2,0,2,1,4,0,1,1,1,0
661293804,661293437,45930887,42.3585499,-71.08724959999999,0.17481653,-0.8758308,4.6001234,0.0011367018,0.000111144094,0.0,-0.042105593,-0.005927346,0.0085617015,0.012483212,0.00446994,-0.05826801,0.14515758,-0.008319946,-0.026801173,0.0059822365,2.7120798,0.023883352,5.8776836,0.1,0.70738184,0.47713727,0.2241371,0.13076359,inf,inf,inf,inf,1,1,1,1,2,0,2,1,4,0,1,1,1,0
661793750,661793365,45930887,42.3585499,-71.08724959999999,0.09601814,-0.77978283,4.591923,0.0011367018,0.000111144094,0.0,-0.0791391,0.009362688,0.00081897795,-0.0045785503,0.00446994,-0.05826801,0.14515758,-0.020995604,-0.03433807,0.008898691,2.7121084,0.023883352,5.8776836,0.1,0.7128675,0.47774073,0.23265438,0.13201115,inf,inf,inf,inf,1,1,1,1,2,0,2,1,4,0,1,1,1,0
662293609,662293294,45930887,42.3585499,-71.08724959999999,0.07348291,-0.725563,4.59003,0.0011367018,0.000111144094,0.0,-0.078912206,-8.5962594e-05,0.0020797919,-0.0035310972,0.00446994,-0.05826801,0.14515758,-0.050669074,-0.014921599,0.03604011,2.7119474,0.023883352,5.8776836,0.1,0.72761524,0.48021388,0.23530929,0.13253357,inf,inf,inf,inf,1,1,1,1,2,0,2,1,4,0,1,1,1,0
662793530,662793222,45930887,42.3585499,-71.08724959999999,0.038949072,-0.67460865,4.586818,0.0011367018,0.000111144094,0.0,-0.08614028,-0.0025201675,0.004744607,-0.0021996982,0.00446994,-0.05826801,0.14515758,-0.02953263,-0.011327883,0.10456268,2.7117856,0.023883352,5.8776836,0.10075712,0.7348622,0.48505062,0.24245961,0.13415796,inf,inf,inf,inf,1,1,1,1,2,0,2,1,4,0,1,1,1,0
663293514,663293150,45930887,42.3585499,-71.08724959999999,-0.018079769,-0.6114918,4.5813446,0.0011367018,0.000111144094,0.0,-0.10309344,0.00631616,0.0044707884,-0.0068680868,0.00446994,-0.05826801,0.14515758,-0.011416722,-0.014889184,0.0045500216,2.711605,0.023883352,5.8776836,0.1,0.7686129,0.49095726,0.25546277,0.13614148,inf,inf,inf,inf,1,1,1,1,2,0,2,1,4,0,1,1,1,0
663793509,663793078,45930887,42.3585499,-71.08724959999999,-0.0686069,-0.5387038,4.569602,0.0011367018,0.000111144094,0.0,-0.11306531,0.011943,-0.00030436504,-0.01606269,0.00446994,-0.05826801,0.14515758,-0.009546658,-0.037273996,0.012886221,2.7114775,0.023883352,5.8776836,0.1,0.775452,0.490507,0.25965616,0.1365087,inf,inf,inf,inf,1,1,1,1,2,0,2,1,4,0,1,1,1,0
664293309,664293006,45930887,42.3585499,-71.08724959999999,-0.096606374,-0.48403382,4.5600567,0.0011367018,0.000111144094,0.0,-0.11075034,0.006087642,-0.0052715256,-0.02147766,0.00446994,-0.05826801,0.14515758,-0.010513554,-0.04203371,-0.015907124,2.7113674,0.023883352,5.8776836,0.1,0.8151907,0.49642915,0.2733728,0.13829859,inf,inf,inf,inf,1,1,1,1,2,0,2,1,4,0,1,1,1,0
664793370,664792934,45930887,42.3585499,-71.08724959999999,-0.2142388,-0.36041975,4.5546975,0.0011367018,0.000111144094,0.0,-0.14723453,0.02984419,-0.0006481851,-0.0106703695,0.00446994,-0.05826801,0.14515758,-0.02573741,-0.0242674,0.032462724,2.7117367,0.023883352,5.8776836,0.103178024,0.82503253,0.5010096,0.27752337,0.13935433,inf,inf,inf,inf,1,1,1,1,2,0,2,1,4,0,1,1,1,0
665293204,665292862,45930887,42.3585499,-71.08724959999999,-0.20136192,-0.27396494,4.555795,0.0011367018,0.000111144094,0.0,-0.114211865,0.034408975,0.00042747927,-0.0052241143,0.00446994,-0.05826801,0.14515758,-0.013319124,-0.029187782,0.022170193,2.711945,0.023883352,5.8776836,0.10564089,0.79703003,0.49541306,0.24968427,0.13575952,inf,inf,inf,inf,1,1,1,1,2,0,2,1,4,0,1,1,1,0
665793091,665792789,45930887,42.3585499,-71.08724959999999,-0.09690492,-0.25054288,4.560198,0.0011367018,0.000111144094,0.0,-0.061455697,0.016972085,0.011261903,0.008384413,0.00446994,-0.05826801,0.14515758,-0.023406595,-0.011484545,0.016757926,2.7121427,0.023883352,5.8776836,0.10408783,0.7969385,0.49298218,0.25095963,0.13546735,inf,inf,inf,inf,1,1,1,1,2,0,2,1,4,0,1,1,1,0
666293077,666292717,45930887,42.3585499,-71.08724959999999,-0.035521753,-0.25915092,4.566006,0.0011367018,0.000111144094,0.0,-0.03917823,-0.0050289067,0.00311961,0.002477944,0.00446994,-0.05826801,0.14515758,-0.016162433,-0.029989058,-0.016033024,2.7124567,0.023883352,5.8776836,0.10425186,0.81489176,0.49486578,0.25395098,0.13571207,inf,inf,inf,inf,1,1,1,1,2,0,2,1,4,0,1,1,1,0
666793032,666792644,45930887,42.3585499,-71.08724959999999,-0.030549163,-0.22195666,4.569189,0.0011367018,0.000111144094,0.0,-0.034703404,-0.014036079,-0.008223944,-0.006071635,0.00446994,-0.05826801,0.14515758,-0.004477295,-0.041062135,-0.088916376,2.712203,0.023883352,5.8776836,0.1,0.79438645,0.4937436,0.24470945,0.13467452,inf,inf,inf,inf,1,1,1,1,2,0,2,1,4,0,1,1,1,0
667292897,667292571,45930887,42.3585499,-71.08724959999999,-0.07258433,-0.18680787,4.5701413,0.0011367018,0.000111144094,0.0,-0.048001856,-0.019007688,-0.013032533,-0.004255887,0.00446994,-0.05826801,0.14515758,-0.0011047728,-0.020184247,0.019768532,2.711774,0.023883352,5.8776836,0.109778404,0.8199203,0.49727055,0.2540499,0.13584796,inf,inf,inf,inf,1,1,1,1,2,0,2,1,4,0,1,1,1,0
667792892,667792498,45930887,42.3585499,-71.08724959999999,-0.06539103,-0.17421342,4.581374,0.0011367018,0.000111144094,0.0,-0.034494866,-0.02379357,-0.0015613593,0.0147683695,0.00446994,-0.05826801,0.14515758,0.03148425,-0.036396705,-0.09758002,2.7115393,0.023883352,5.8776836,0.104784966,0.8053217,0.49261126,0.24928713,0.13476169,inf,inf,inf,inf,1,1,1,1,2,0,2,1,4,0,1,1,1,0
668292732,668292425,45930887,42.3585499,-71.08724959999999,-0.032487873,-0.16811718,4.57868,0.0011367018,0.000111144094,0.0,-0.015228244,-0.025581006,0.009377072,0.013405802,0.00446994,-0.05826801,0.14515758,-0.0015931458,-0.024521613,0.07621315,2.7112145,0.023883352,5.8776836,0.10003519,0.8075997,0.49176005,0.24500534,0.1340068,inf,inf,inf,inf,1,1,1,1,2,0,2,1,4,0,1,1,1,0
668792705,668792352,45930887,42.3585499,-71.08724959999999,-0.019640785,-0.17677344,4.580461,0.0011367018,0.000111144094,0.0,-0.013119272,-0.038229786,0.005615605,0.007283357,0.00446994,-0.05826801,0.14515758,-0.016238648,-0.025761923,0.013036821,2.7111518,0.023883352,5.8776836,0.1,0.79035836,0.4911729,0.23936495,0.1334503,inf,inf,inf,inf,1,1,1,1,2,0,2,1,4,0,1,1,1,0
669292660,669292278,45930887,42.3585499,-71.08724959999999,0.012741671,-0.19073214,4.584943,0.0011367018,0.000111144094,0.0,-0.0056242608,-0.05358553,-0.0057431003,-0.00058642594,0.00446994,-0.05826801,0.14515758,0.014042433,-0.055372365,-0.07690961,2.7108326,0.023883352,5.8776836,0.10197544,0.8080343,0.49348167,0.24592713,0.1343051,inf,inf,inf,inf,1,1,1,1,2,0,2,1,4,0,1,1,1,0
669792680,669792205,45930887,42.3585499,-71.08724959999999,0.049438328,-0.20921788,4.594308,0.0011367018,0.000111144094,0.0,0.0072842906,-0.062135402,-0.004602273,0.008238006,0.00446994,-0.05826801,0.14515758,0.03592678,-0.030416984,-0.015883628,2.7104995,0.023883352,5.8776836,0.1,0.80141294,0.4903134,0.24716467,0.13407911,inf,inf,inf,inf,1,1,1,1,2,0,2,1,4,0,1,1,1,0
670292533,670292131,45930887,42.3585499,-71.08724959999999,0.09174771,-0.22320683,4.593783,0.0011367018,0.000111144094,0.0,0.027613873,-0.06504995,0.002054679,0.008311811,0.00446994,-0.05826801,0.14515758,0.017118827,-0.021691784,-0.011495998,2.710034,0.023883352,5.8776836,0.1,0.8216947,0.4930927,0.2542513,0.13505627,inf,inf,inf,inf,1,1,1,1,2,0,2,1,4,0,1,1,1,0
670792370,670792058,45930887,42.3585499,-71.08724959999999,0.11298868,-0.20083147,4.605745,0.0011367018,0.000111144094,0.0,0.0303198,-0.04967072,0.014396682,0.023668189,0.00446994,-0.05826801,0.14515758,0.03273133,-0.02109349,-0.032496832,2.7097857,0.023883352,5.8776836,0.1,0.8056886,0.49321002,0.2491387,0.13477293,inf,inf,inf,inf,1,1,1,1,2,0,2,1,4,0,1,1,1,0
671292328,671291983,45930887,42.3585499,-71.08724959999999,0.14036568,-0.1415891,4.6100607,0.0011367018,0.000111144094,0.0,0.032252766,-0.026487393,0.008216026,0.011260782,0.00446994,-0.05826801,0.14515758,-0.0182231,-0.0016212858,0.045770224,2.7097135,0.023883352,5.8776836,0.1,0.78407764,0.48718336,0.2304402,0.13176994,inf,inf,inf,inf,1,1,1,1,2,0,2,1,4,0,1,1,1,0
671792228,671791909,45930887,42.3585499,-71.08724959999999,0.18858688,-0.15503682,4.6155043,0.0011367018,0.000111144094,0.0,0.04524337,-0.038155984,0.0058092927,0.009521668,0.00446994,-0.05826801,0.14515758,0.03687274,-0.025052402,-0.0894686,2.709536,0.023883352,5.8776836,0.103784084,0.7595426,0.479957,0.22151211,0.12978531,inf,inf,inf,inf,1,1,1,1,2,0,2,1,4,0,1,1,1,0
672292181,672291835,45930887,42.3585499,-71.08724959999999,0.16177139,-0.1485842,4.624201,0.0011367018,0.000111144094,0.0,0.030822044,-0.033070378,0.0018984334,0.009961619,0.00446994,-0.05826801,0.14515758,-0.008241511,0.004549255,0.018175952,2.7093415,0.023883352,5.8776836,0.100412846,0.76175153,0.47942242,0.22109841,0.1295764,inf,inf,inf,inf,1,1,1,1,2,0,2,1,4,0,1,1,1,0
672792127,672791761,45930887,42.3585499,-71.08724959999999,0.1200534,-0.15383253,4.6244845,0.0011367018,0.000111144094,0.0,0.008230487,-0.029254582,0.012088808,0.01306729,0.00446994,-0.05826801,0.14515758,-0.012926946,0.009741801,0.019261621,2.709322,0.023883352,5.8776836,0.1,0.74886394,0.48004487,0.22175416,0.12996148,inf,inf,inf,inf,1,1,1,1,2,0,2,1,4,0,1,1,1,0
673292192,673291687,45930887,42.3585499,-71.08724959999999,0.1311621,-0.18463625,4.6191998,0.0011367018,0.000111144094,0.0,0.009473353,-0.035683278,0.011239493,0.0021850755,0.00446994,-0.05826801,0.14515758,0.015277379,-0.022520961,-0.04053258,2.7089727,0.023883352,5.8776836,0.1,0.75318754,0.47582182,0.22287434,0.12944439,inf,inf,inf,inf,1,1,1,1,2,0,2,1,4,0,1,1,1,0
673792020,673791612,45930887,42.3585499,-71.08724959999999,0.13716936,-0.22313105,4.6002293,0.0011367018,0.000111144094,0.0,0.005342055,-0.04845388,-0.0070442706,-0.026804501,0.00446994,-0.05826801,0.14515758,0.005177814,-0.16239616,-0.016029516,2.7085433,0.023883352,5.8776836,0.1,0.73712367,0.47570398,0.22095163,0.1294105,inf,inf,inf,inf,1,1,1,1,2,0,2,1,4,0,1,1,1,0
674291967,674291537,45930887,42.3585499,-71.08724959999999,0.16145584,-0.2740327,4.5894647,0.0011367018,0.000111144094,0.0,0.012779555,-0.06559501,-0.011072977,-0.026517222,0.00446994,-0.05826801,0.14515758,-0.04062548,0.0051159505,0.037241332,2.7083127,0.023883352,5.8776836,0.10142565,0.75042325,0.47874463,0.22839269,0.13078418,inf,inf,inf,inf,1,1,1,1,2,0,2,1,4,0,1,1,1,0
674791863,674791462,45930887,42.3585499,-71.08724959999999,0.17088412,-0.30775943,4.5790997,0.0011367018,0.000111144094,0.0,0.014798387,-0.06608059,-0.0066963434,-0.019557,0.00446994,-0.05826801,0.14515758,-0.016812038,0.012518244,0.036782175,2.7081032,0.023883352,5.8776836,0.10177517,0.7288619,0.47739092,0.2203172,0.12987097,inf,inf,inf,inf,1,1,1,1,2,0,2,1,4,0,1,1,1,0
675291757,675291388,45930887,42.3585499,-71.08724959999999,0.19074996,-0.33030444,4.590273,0.0011367018,0.000111144094,0.0,0.014161775,-0.059335668,0.000842704,0.0029522465,0.00446994,-0.05826801,0.14515758,-0.014717903,0.0024135858,0.015436469,2.7076647,0.023883352,5.8776836,0.11059332,0.7367413,0.47449774,0.2234139,0.12980038,inf,inf,inf,inf,1,1,1,1,2,0,2,1,4,0,1,1,1,0
675791624,675791312,45930887,42.3585499,-71.08724959999999,0.24375685,-0.38521352,4.5942206,0.0011367018,0.000111144094,0.0,0.022006223,-0.06853866,-0.005792895,-0.0011250959,0.00446994,-0.05826801,0.14515758,0.012966854,-0.039089415,-0.13878366,2.7074742,0.023883352,5.8776836,0.1061306,0.7171619,0.47332528,0.21663158,0.12897334,inf,inf,inf,inf,1,1,1,1,2,0,2,1,4,0,1,1,1,0
676291540,676291237,45930887,42.3585499,-71.08724959999999,0.2974056,-0.4099261,4.5966716,0.0011367018,0.000111144094,0.0,0.028142316,-0.06045615,-0.010601616,-0.003099074,0.00446994,-0.05826801,0.14515758,0.01481081,-0.008284309,0.0023816812,2.7072973,0.023883352,5.8776836,0.103553295,0.7081126,0.4693335,0.20721292,0.12696892,inf,inf,inf,inf,1,1,1,1,2,0,2,1,4,0,1,1,1,0
676791516,676791162,45930887,42.3585499,-71.08724959999999,0.37476835,-0.43600336,4.6070857,0.0011367018,0.000111144094,0.0,0.03738789,-0.047184184,0.0050382316,0.018418383,0.00446994,-0.05826801,0.14515758,0.017217385,0.005654573,-0.025268301,2.7069802,0.023883352,5.8776836,0.10071182,0.6967796,0.47017723,0.2082051,0.12741174,inf,inf,inf,inf,1,1,1,1,2,0,2,1,4,0,1,1,1,0
677291494,677291086,45930887,42.3585499,-71.08724959999999,0.4439134,-0.4731428,4.6093726,0.0011367018,0.000111144094,0.0,0.047035985,-0.041028,0.009187816,0.014527311,0.00446994,-0.05826801,0.14515758,0.023179635,-0.021504201,-0.020797653,2.7069197,0.023883352,5.8776836,0.1,0.71146137,0.4698127,0.2175741,0.12862799,inf,inf,inf,inf,1,1,1,1,2,0,2,1,4,0,1,1,1,0
677791624,677791011,45930887,42.3585499,-71.08724959999999,0.54690033,-0.54006,4.609492,0.0011367018,0.000111144094,0.0,0.062226154,-0.050097097,0.0052441596,0.00505248,0.00446994,-0.05826801,0.14515758,0.0071644243,-0.012573608,-0.0009832178,2.7068129,0.023883352,5.8776836,0.1,0.70571965,0.4726548,0.22112879,0.12975127,inf,inf,inf,inf,1,1,1,1,2,0,2,1,4,0,1,1,1,0
678291236,678290935,45930887,42.3585499,-71.08724959999999,0.68989867,-0.6386807,4.607018,0.0011367018,0.000111144094,0.0,0.087847754,-0.067144305,-0.0082928585,-0.01008496,0.00446994,-0.05826801,0.14515758,0.043413956,-0.016144302,-0.070589796,2.7066612,0.023883352,5.8776836,0.1,0.7100425,0.47321865,0.21986046,0.12962708,inf,inf,inf,inf,1,1,1,1,2,0,2,1,4,0,1,1,1,0
678791263,678790859,45930887,42.3585499,-71.08724959999999,0.826279,-0.71933603,4.600843,0.0011367018,0.000111144094,0.0,0.10537991,-0.069364294,-0.007157794,-0.011112762,0.00446994,-0.05826801,0.14515758,0.030126605,-0.008780742,-0.25953647,2.7064998,0.023883352,5.8776836,0.1,0.7003474,0.4748642,0.2195385,0.13003519,inf,inf,inf,inf,1,1,1,1,2,0,2,1,4,0,1,1,1,0
679291281,679290783,45930887,42.3585499,-71.08724959999999,0.9049548,-0.74788636,4.596707,0.0011367018,0.000111144094,0.0,0.10154059,-0.050715722,0.008509266,0.0048154593,0.00446994,-0.05826801,0.14515758,0.011839963,0.01853154,-0.03083349,2.7063818,0.023883352,5.8776836,0.10115099,0.6962221,0.46835893,0.21136856,0.12787867,inf,inf,inf,inf,1,1,1,1,2,0,2,1,4,0,1,1,1,0
679791065,679790707,45930887,42.3585499,-71.08724959999999,0.96786636,-0.7844243,4.6002116,0.0011367018,0.000111144094,0.0,0.09481228,-0.04012209,0.00034401097,0.0020075017,0.00446994,-0.05826801,0.14515758,-0.020758713,0.020738916,0.06543611,2.706009,0.023883352,5.8776836,0.1,0.6798951,0.4672971,0.2069156,0.12719038,inf,inf,inf,inf,1,1,1,1,2,0,2,1,4,0,1,1,1,0
680290935,680290631,45930887,42.3585499,-71.08724959999999,1.072191,-0.8409264,4.602106,0.0011367018,0.000111144094,0.0,0.1068265,-0.03795076,-0.0010221233,0.0021784694,0.00446994,-0.05826801,0.14515758,-0.0018525479,0.028018119,0.007361222,2.705789,0.023883352,5.8776836,0.104091644,0.69473684,0.47099972,0.21528856,0.12880355,inf,inf,inf,inf,1,1,1,1,2,0,2,1,4,0,1,1,1,0
680790860,680790554,45930887,42.3585499,-71.08724959999999,1.1717294,-0.87370324,4.6138644,0.0011367018,0.000111144094,0.0,0.10822541,-0.025726287,0.0038830736,0.01385008,0.00446994,-0.05826801,0.14515758,-0.031300463,0.0444804,-0.05506763,2.7057035,0.023883352,5.8776836,0.10410023,0.67864144,0.47016433,0.2093297,0.12801844,inf,inf,inf,inf,1,1,1,1,2,0,2,1,4,0,1,1,1,0
681290893,681290478,45930887,42.3585499,-71.08724959999999,1.2756124,-0.8795398,4.6277494,0.0011367018,0.000111144094,0.0,0.10529137,-3.8575818e-05,0.01190377,0.025360066,0.00446994,-0.05826801,0.14515758,-0.0114631355,-0.0066856723,-0.110866934,2.7056415,0.023883352,5.8776836,0.1,0.6941882,0.4697823,0.21756032,0.12899789,inf,inf,inf,inf,1,1,1,1,2,0,2,1,4,0,1,1,1,0
681790756,681790401,45930887,42.3585499,-71.08724959999999,1.3641583,-0.9159217,4.633828,0.0011367018,0.000111144094,0.0,0.10642732,0.0047228765,0.009485211,0.019604009,0.00446994,-0.05826801,0.14515758,-0.00031298568,0.020841312,0.011385942,2.705423,0.023883352,5.8776836,0.10035467,0.6835393,0.47081605,0.21567206,0.12908058,inf,inf,inf,inf,1,1,1,1,2,0,2,1,4,0,1,1,1,0
682290659,682290324,45930887,42.3585499,-71.08724959999999,1.4921315,-0.9840528,4.6354136,0.0011367018,0.000111144094,0.0,0.13109837,-0.007393544,0.01434457,0.014562237,0.00446994,-0.05826801,0.14515758,0.037309483,0.014562857,0.017537704,2.7052722,0.023883352,5.8776836,0.1,0.7026469,0.47543544,0.22518906,0.13089569,inf,inf,inf,inf,1,1,1,1,2,0,2,1,4,0,1,1,1,0
682790552,682790247,45930887,42.3585499,-71.08724959999999,1.6021621,-1.0228498,4.633567,0.0011367018,0.000111144094,0.0,0.13971436,-0.0016833434,0.013883615,0.0058014793,0.00446994,-0.05826801,0.14515758,-0.012551777,0.019613262,-0.047810316,2.7050738,0.023883352,5.8776836,0.1,0.6859458,0.47476292,0.21776472,0.13001025,inf,inf,inf,inf,1,1,1,1,2,0,2,1,4,0,1,1,1,0
683290621,683290170,45930887,42.3585499,-71.08724959999999,1.661818,-1.0398766,4.6233816,0.0011367018,0.000111144094,0.0,0.12317071,0.007523243,0.00653615,-0.009336082,0.00446994,-0.05826801,0.14515758,0.008009368,0.023710806,-0.023850998,2.7048569,0.023883352,5.8776836,0.1,0.7049241,0.47476986,0.22660242,0.13098776,inf,inf,inf,inf,1,1,1,1,2,0,2,1,4,0,1,1,1,0
683790409,683790093,45930887,42.3585499,-71.08724959999999,1.7116814,-1.0629363,4.602392,0.0011367018,0.000111144094,0.0,0.11597005,0.008310576,-0.00012387618,-0.026987573,0.00446994,-0.05826801,0.14515758,-0.00694151,0.024963204,0.04108655,2.704723,0.023883352,5.8776836,0.1,0.6927887,0.4755328,0.22230473,0.1307339,inf,inf,inf,inf,1,1,1,1,2,0,2,1,4,0,1,1,1,0
684290315,684290016,45930887,42.3585499,-71.08724959999999,1.7736871,-1.0678053,4.5989966,0.0011367018,0.000111144094,0.0,0.111378916,0.022038853,0.006088317,-0.012071936,0.00446994,-0.05826801,0.14515758,0.0017699053,0.02442645,-0.02820622,2.7043824,0.023883352,5.8776836,0.1,0.70539826,0.4779178,0.22580977,0.13135242,inf,inf,inf,inf,1,1,1,1,2,0,2,1,4,0,1,1,1,0
684790297,684789938,45930887,42.3585499,-71.08724959999999,1.8074095,-1.0704895,4.5872455,0.0011367018,0.000111144094,0.0,0.085670084,0.03309162,0.0023878973,-0.019142602,0.00446994,-0.05826801,0.14515758,-0.066687346,0.03620595,-0.052851032,2.7038474,0.023883352,5.8776836,0.1,0.66663295,0.4656378,0.20269565,0.1264181,inf,inf,inf,inf,1,1,1,1,2,0,2,1,4,0,1,1,1,0
685290177,685289861,45930887,42.3585499,-71.08724959999999,1.8534073,-1.1095501,4.570573,0.0011367018,0.000111144094,0.0,0.0752427,0.021700572,-0.0064112707,-0.028939588,0.00446994,-0.05826801,0.14515758,-0.027185095,0.006242836,0.05992046,2.7036822,0.023883352,5.8776836,0.1071372,0.672942,0.46613812,0.20420165,0.12650976,inf,inf,inf,inf,1,1,1,1,2,0,2,1,4,0,1,1,1,0
685790226,685789783,45930887,42.3585499,-71.08724959999999,1.909142,-1.1501875,4.5727897,0.0011367018,0.000111144094,0.0,0.071177155,0.011063138,-0.01051691,-0.019283785,0.00446994,-0.05826801,0.14515758,0.064080045,-0.022737697,-0.072123215,2.7037797,0.023883352,5.8776836,0.10445213,0.6704089,0.46908185,0.20933516,0.12780866,inf,inf,inf,inf,1,1,1,1,2,0,2,1,4,0,1,1,1,0
686290097,686289705,45930887,42.3585499,-71.08724959999999,1.980062,-1.1698593,4.566856,0.0011367018,0.000111144094,0.0,0.07583375,0.008322019,-0.0070383134,-0.013899452,0.00446994,-0.05826801,0.14515758,-0.036428522,0.03210603,0.034863506,2.7035367,0.023883352,5.8776836,0.1,0.68227875,0.47137207,0.2137532,0.12864046,inf,inf,inf,inf,1,1,1,1,2,0,2,1,4,0,1,1,1,0
686789960,686789628,45930887,42.3585499,-71.08724959999999,2.0640497,-1.190096,4.553886,0.0011367018,0.000111144094,0.0,0.079467766,0.010845537,-0.012040504,-0.023205403,0.00446994,-0.05826801,0.14515758,0.042888865,-0.004589273,-0.0014685441,2.7033093,0.023883352,5.8776836,0.1,0.68305033,0.4753134,0.21977502,0.13020791,inf,inf,inf,inf,1,1,1,1,2,0,2,1,4,0,1,1,1,0
687289928,687289549,45930887,42.3585499,-71.08724959999999,2.0992336,-1.1819116,4.5493817,0.0011367018,0.000111144094,0.0,0.07336744,0.021239575,-0.009236142,-0.013155829,0.00446994,-0.05826801,0.14515758,-0.04021679,0.045723394,0.10309159,2.7034905,0.023883352,5.8776836,0.112690926,0.7034133,0.47535378,0.22843182,0.13119178,inf,inf,inf,inf,1,1,1,1,2,0,2,1,4,0,1,1,1,0
687789910,687789471,45930887,42.3585499,-71.08724959999999,2.1733303,-1.18532,4.5620613,0.0011367018,0.000111144094,0.0,0.07786364,0.025891818,-0.0003797221,0.00897583,0.00446994,-0.05826801,0.14515758,-0.014479672,0.023715409,0.04264165,2.7033098,0.023883352,5.8776836,0.1069088,0.70078415,0.4783804,0.22991806,0.13203013,inf,inf,inf,inf,1,1,1,1,2,0,2,1,4,0,1,1,1,0
688289835,688289393,45930887,42.3585499,-71.08724959999999,2.1892538,-1.2090956,4.577839,0.0011367018,0.000111144094,0.0,0.058175515,0.014818571,-0.0034760665,0.0140112,0.00446994,-0.05826801,0.14515758,-0.05792892,0.028323356,-0.04426633,2.703098,0.023883352,5.8776836,0.10206556,0.71299803,0.48040783,0.23148641,0.1323649,inf,inf,inf,inf,1,1,1,1,2,0,2,1,4,0,1,1,1,0
688789620,688789315,45930887,42.3585499,-71.08724959999999,2.1903677,-1.2197123,4.583724,0.0011367018,0.000111144094,0.0,0.03704087,0.0049549905,-0.011470225,0.005303416,0.00446994,-0.05826801,0.14515758,-0.02923708,-8.761652e-05,0.031068753,2.7029705,0.023883352,5.8776836,0.10413551,0.7070638,0.48273867,0.23087503,0.13280286,inf,inf,inf,inf,1,1,1,1,2,0,2,1,4,0,1,1,1,0
689289555,689289236,45930887,42.3585499,-71.08724959999999,2.2335365,-1.224184,4.588032,0.0011367018,0.000111144094,0.0,0.043715354,0.0013241499,-0.0074113486,0.00895271,0.00446994,-0.05826801,0.14515758,-0.03883514,0.022928828,0.02984103,2.7028294,0.023883352,5.8776836,0.10152149,0.69197816,0.47282088,0.21290553,0.12881306,inf,inf,inf,inf,1,1,1,1,2,0,2,1,4,0,1,1,1,0
689789463,689789157,45930887,42.3585499,-71.08724959999999,2.2497659,-1.1936332,4.603322,0.0011367018,0.000111144094,0.0,0.03408015,0.017017467,0.008141284,0.03048148,0.00446994,-0.05826801,0.14515758,-0.047316805,0.002083808,0.29020914,2.702529,0.023883352,5.8776836,0.10610819,0.67810625,0.47220033,0.2087503,0.12820071,inf,inf,inf,inf,1,1,1,1,2,0,2,1,4,0,1,1,1,0
690289403,690289079,45930887,42.3585499,-71.08724959999999,2.2588985,-1.1977944,4.625068,0.0011367018,0.000111144094,0.0,0.023220364,0.017735928,0.01962975,0.04375742,0.00446994,-0.05826801,0.14515758,-0.012793501,0.00013463161,0.17679405,2.7023191,0.023883352,5.8776836,0.10531044,0.6889511,0.47400522,0.21286678,0.128847,inf,inf,inf,inf,1,1,1,1,2,0,2,1,4,0,1,1,1,0
690789432,690789000,45930887,42.3585499,-71.08724959999999,2.3323815,-1.2372818,4.653726,0.0011367018,0.000111144094,0.0,0.03764375,0.0019307164,0.024174111,0.04893598,0.00446994,-0.05826801,0.14515758,-0.02991997,0.00014688532,0.04189767,2.702215,0.023883352,5.8776836,0.1,0.6813349,0.47113988,0.21372995,0.12865847,inf,inf,inf,inf,1,1,1,1,2,0,2,1,4,0,1,1,1,0
691299317,691298919,45930887,42.3585499,-71.08724959999999,2.4181454,-1.3076671,4.6496353,0.0011367018,0.000111144094,0.0,0.049819343,-0.024450496,0.01070733,0.012622323,0.00446994,-0.05826801,0.14515758,-0.04590541,-0.00032130608,0.0016130061,2.7020836,0.023883352,5.8776836,0.1,0.6854578,0.47164643,0.21212848,0.12833902,inf,inf,inf,inf,1,1,1,1,2,0,2,1,4,0,1,1,1,0
691789144,691788841,45930887,42.3585499,-71.08724959999999,2.4663992,-1.3450463,4.6395345,0.0011367018,0.000111144094,0.0,0.043820933,-0.03199162,0.016082825,0.0035741036,0.00446994,-0.05826801,0.14515758,0.01216885,-0.0053612962,-0.009443032,2.7019243,0.023883352,5.8776836,0.1,0.6733368,0.47159964,0.21104255,0.12835924,inf,inf,inf,inf,1,1,1,1,2,0,2,1,4,0,1,1,1,0
692289067,692288762,45930887,42.3585499,-71.08724959999999,2.5494933,-1.402958,4.6288857,0.0011367018,0.000111144094,0.0,0.04704663,-0.03800973,0.014971762,-0.004694397,0.00446994,-0.05826801,0.14515758,0.015387962,-0.0039678183,-0.12392192,2.701918,0.023883352,5.8776836,0.1,0.69038767,0.47556323,0.21998161,0.13003577,inf,inf,inf,inf,1,1,1,1,2,0,2,1,4,0,1,1,1,0
692789186,692788683,45930887,42.3585499,-71.08724959999999,2.6546226,-1.4836912,4.621978,0.0011367018,0.000111144094,0.0,0.06359511,-0.054187633,0.011292324,-0.009809711,0.00446994,-0.05826801,0.14515758,-0.006363045,0.0016789342,0.01482822,2.7019043,0.023883352,5.8776836,0.1,0.68003154,0.4722575,0.21831228,0.12951615,inf,inf,inf,inf,1,1,1,1,2,0,2,1,4,0,1,1,1,0
693288974,693288603,45930887,42.3585499,-71.08724959999999,2.730689,-1.5624645,4.607794,0.0011367018,0.000111144094,0.0,0.065366685,-0.06945883,0.0064831143,-0.021479556,0.00446994,-0.05826801,0.14515758,-0.00748602,-0.007026657,-0.028189804,2.7018316,0.023883352,5.8776836,0.1,0.69625556,0.47560582,0.22497244,0.13075572,inf,inf,inf,inf,1,1,1,1,2,0,2,1,4,0,1,1,1,0
693788829,693788524,45930887,42.3585499,-71.08724959999999,2.794317,-1.6372256,4.590326,0.0011367018,0.000111144094,0.0,0.05885611,-0.079247385,0.012543366,-0.021159748,0.00446994,-0.05826801,0.14515758,-0.0050348043,-0.006572403,-0.017097741,2.701724,0.023883352,5.8776836,0.1,0.6882917,0.47732687,0.22375657,0.13106637,inf,inf,inf,inf,1,1,1,1,2,0,2,1,4,0,1,1,1,0
694288836,694288444,45930887,42.3585499,-71.08724959999999,2.8545077,-1.717299,4.5654955,0.0011367018,0.000111144094,0.0,0.05782964,-0.08993109,0.0049000573,-0.03617063,0.00446994,-0.05826801,0.14515758,0.0075861015,-0.008266448,-0.029999638,2.7016456,0.023883352,5.8776836,0.1,0.6985701,0.4789151,0.22484003,0.13129227,inf,inf,inf,inf,1,1,1,1,2,0,2,1,4,0,1,1,1,0
694798745,694798362,45930887,42.3585499,-71.08724959999999,2.9577749,-1.8104738,4.538584,0.0011367018,0.000111144094,0.0,0.06820163,-0.099948674,-0.012847588,-0.05464382,0.00446994,-0.05826801,0.14515758,-0.03463497,0.007740861,0.015792644,2.7016969,0.023883352,5.8776836,0.10235596,0.68630457,0.47541648,0.22050531,0.13034208,inf,inf,inf,inf,1,1,1,1,2,0,2,1,4,0,1,1,1,0
695288598,695288284,45930887,42.3585499,-71.08724959999999,3.0702999,-1.9082316,4.523117,0.0011367018,0.000111144094,0.0,0.07052315,-0.106499575,-0.012905102,-0.04316935,0.00446994,-0.05826801,0.14515758,-0.012430199,-0.020937536,0.0035856706,2.7015593,0.023883352,5.8776836,0.10949659,0.70761514,0.4792482,0.23064177,0.13200592,inf,inf,inf,inf,1,1,1,1,2,0,2,1,4,0,1,1,1,0
695788508,695788204,45930887,42.3585499,-71.08724959999999,3.148768,-1.982235,4.511893,0.0011367018,0.000111144094,0.0,0.06470494,-0.10679013,-0.017654605,-0.037754245,0.00446994,-0.05826801,0.14515758,0.027522553,-0.03548163,0.01799185,2.7014153,0.023883352,5.8776836,0.10696268,0.69444174,0.47954345,0.22543904,0.1315793,inf,inf,inf,inf,1,1,1,1,2,0,2,1,4,0,1,1,1,0
696288424,696288124,45930887,42.3585499,-71.08724959999999,3.2420614,-2.0630715,4.4954715,0.0011367018,0.000111144094,0.0,0.068994,-0.11430463,-0.024087224,-0.040701903,0.00446994,-0.05826801,0.14515758,-0.0043672943,-0.011348849,0.024696475,2.701051,0.023883352,5.8776836,0.10802746,0.72150713,0.4851549,0.23792414,0.13370201,inf,inf,inf,inf,1,1,1,1,2,0,2,1,4,0,1,1,1,0
696788441,696788043,45930887,42.3585499,-71.08724959999999,3.3471062,-2.1429183,4.488581,0.0011367018,0.000111144094,0.0,0.067317694,-0.11202605,-0.020679066,-0.02607084,0.00446994,-0.05826801,0.14515758,-0.0075576473,0.000282919,0.036285765,2.7009575,0.023883352,5.8776836,0.11492252,0.68327224,0.47412404,0.21445172,0.12927358,inf,inf,inf,inf,1,1,1,1,2,0,2,1,4,0,1,1,1,0
697288412,697287963,45930887,42.3585499,-71.08724959999999,3.4236794,-2.1999311,4.4924192,0.0011367018,0.000111144094,0.0,0.05379528,-0.10015376,-0.021244857,-0.014925844,0.00446994,-0.05826801,0.14515758,-0.022287657,0.0054125367,-0.0052391607,2.700722,0.023883352,5.8776836,0.10402775,0.6928079,0.4752651,0.21659416,0.12951677,inf,inf,inf,inf,1,1,1,1,2,0,2,1,4,0,1,1,1,0
697798310,697797880,45930887,42.3585499,-71.08724959999999,3.521327,-2.2792368,4.485508,0.0011367018,0.000111144094,0.0,0.052991662,-0.10145673,-0.024305647,-0.017270973,0.00446994,-0.05826801,0.14515758,-0.010655023,-0.0039007806,-0.038416263,2.700575,0.023883352,5.8776836,0.103848934,0.68012416,0.47558483,0.21242808,0.1290854,inf,inf,inf,inf,1,1,1,1,2,0,2,1,4,0,1,1,1,0
698298179,698297799,45930887,42.3585499,-71.08724959999999,3.6196923,-2.3570895,4.4657874,0.0011367018,0.000111144094,0.0,0.05796508,-0.09953718,-0.033314154,-0.033986896,0.00446994,-0.05826801,0.14515758,-0.0070847506,-0.0034901095,-0.0022448485,2.700732,0.023883352,5.8776836,0.106253624,0.7009251,0.47559103,0.22302893,0.13031077,inf,inf,inf,inf,1,1,1,1,2,0,2,1,4,0,1,1,1,0
698788083,698787720,45930887,42.3585499,-71.08724959999999,3.728779,-2.4280357,4.439055,0.0011367018,0.000111144094,0.0,0.07384365,-0.09511881,-0.036024652,-0.04394509,0.00446994,-0.05826801,0.14515758,-0.034190726,0.027126342,0.13303247,2.7006595,0.023883352,5.8776836,0.10480881,0.67882013,0.47225234,0.21283634,0.12864153,inf,inf,inf,inf,1,1,1,1,2,0,2,1,4,0,1,1,1,0
699287940,699287639,45930887,42.3585499,-71.08724959999999,3.8177364,-2.5123155,4.4218497,0.0011367018,0.000111144094,0.0,0.06941917,-0.09377795,-0.029335734,-0.03464346,0.00446994,-0.05826801,0.14515758,-0.035932865,0.021446671,0.006100897,2.7004585,0.023883352,5.8776836,0.107723236,0.69757086,0.4761592,0.22196865,0.1302925,inf,inf,inf,inf,1,1,1,1,2,0,2,1,4,0,1,1,1,0
699787864,699787558,45930887,42.3585499,-71.08724959999999,3.865645,-2.5798867,4.416256,0.0011367018,0.000111144094,0.0,0.053114876,-0.087451555,-0.027509805,-0.02453697,0.00446994,-0.05826801,0.14515758,0.006644703,-0.010608325,0.011076022,2.7004142,0.023883352,5.8776836,0.10203171,0.67831606,0.4742555,0.21319391,0.12901755,inf,inf,inf,inf,1,1,1,1,2,0,2,1,4,0,1,1,1,0
700287789,700287477,45930887,42.3585499,-71.08724959999999,3.9217103,-2.6480923,4.4047832,0.0011367018,0.000111144094,0.0,0.049710765,-0.083186306,-0.027093591,-0.022678595,0.00446994,-0.05826801,0.14515758,-0.27065644,0.09377515,0.6362134,2.7002406,0.023883352,5.8776836,0.102642536,0.69524693,0.47772697,0.22117122,0.13045502,inf,inf,inf,inf,1,1,1,1,2,0,2,1,4,0,1,1,1,0
700797702,700797394,45930887,42.3585499,-71.08724959999999,3.9438334,-2.6964037,4.3983994,0.0011367018,0.000111144094,0.0,0.029589092,-0.06705181,-0.027834564,-0.017463837,0.00446994,-0.05826801,0.14515758,0.029486546,0.00513073,-0.06499861,2.7003536,0.023883352,5.8776836,0.10908985,0.693665,0.477096,0.22460434,0.13097627,inf,inf,inf,inf,1,1,1,1,2,0,2,1,4,0,1,1,1,0
701297654,701297312,45930887,42.3585499,-71.08724959999999,3.954361,-2.7463377,4.4023156,0.0011367018,0.000111144094,0.0,0.010414855,-0.05666588,-0.024251143,-0.0041242484,0.00446994,-0.05826801,0.14515758,-0.043324776,0.03068407,0.024843413,2.700352,0.023883352,5.8776836,0.11421347,0.7186018,0.482171,0.23580296,0.13293204,inf,inf,inf,inf,1,1,1,1,2,0,2,1,4,0,1,1,1,0
701797548,701797231,45930887,42.3585499,-71.08724959999999,3.961125,-2.7968476,4.4035416,0.0011367018,0.000111144094,0.0,-0.0005361557,-0.052561533,-0.020628374,-0.00080558384,0.00446994,-0.05826801,0.14515758,0.0063443617,6.745712e-05,-0.017117959,2.7004051,0.023883352,5.8776836,0.10538721,0.70907784,0.48341593,0.23213121,0.13289349,inf,inf,inf,inf,1,1,1,1,2,0,2,1,4,0,1,1,1,0
