timestamp,timestamp_sample,ref_timestamp,ref_lat,ref_lon,x,y,z,delta_xy[0],delta_xy[1],delta_z,vx,vy,vz,z_deriv,delta_vxy[0],delta_vxy[1],delta_vz,ax,ay,az,heading,delta_heading,ref_alt,dist_bottom,eph,epv,evh,evv,vxy_max,vz_max,hagl_min,hagl_max,xy_valid,z_valid,v_xy_valid,v_z_valid,xy_reset_counter,z_reset_counter,vxy_reset_counter,vz_reset_counter,heading_reset_counter,heading_good_for_control,xy_global,z_global,dist_bottom_valid,dist_bottom_sensor_bitfield
539374288,539373583,45936231,42.3585499,-71.08724959999999,3.4908094,-2.9582202,5.3897896,-0.79315186,0.5521927,-0.121025085,0.054440822,0.022250889,0.0058561754,-0.012089494,-2.3011417,2.5787416,-0.4724617,0.031342722,-0.04375394,-0.021639552,2.5836766,0.053713392,5.8792515,0.1,0.6202123,0.45725036,0.20397682,0.12725878,inf,inf,inf,inf,1,1,1,1,3,1,3,2,6,0,1,1,1,0
539384174,539383538,45936231,42.3585499,-71.08724959999999,3.4916203,-2.958709,5.3895926,-0.79315186,0.5521927,-0.121025085,0.05460573,0.02209845,0.005665948,-0.012352435,-2.3011417,2.5787416,-0.4724617,0.0014573089,-0.025834065,-0.011325955,2.5836744,0.053713392,5.8792515,0.1,0.6214603,0.458164,0.20447743,0.12745687,inf,inf,inf,inf,1,1,1,1,3,1,3,2,6,0,1,1,1,0
539473899,539473129,45936231,42.3585499,-71.08724959999999,3.498443,-2.9621155,5.386979,-0.79315186,0.5521927,-0.121025085,0.05537401,0.02245392,0.007602633,-0.01192498,-2.3011417,2.5787416,-0.4724617,0.03994921,0.04000957,0.07256082,2.583596,0.053713392,5.8792515,0.1,0.63295525,0.46248987,0.20902906,0.12866521,inf,inf,inf,inf,1,1,1,1,3,1,3,2,6,0,1,1,1,0
539573456,539572675,45936231,42.3585499,-71.08724959999999,3.5037003,-2.9652655,5.389129,-0.79315186,0.5521927,-0.121025085,0.053929333,0.024853382,0.017911822,0.001310975,-2.3011417,2.5787416,-0.4724617,-0.055018183,-0.081805065,-0.04567093,2.583478,0.053713392,5.8792515,0.10698986,0.62081856,0.46050632,0.20411335,0.12778106,inf,inf,inf,inf,1,1,1,1,3,1,3,2,6,0,1,1,1,0
539672798,539672221,45936231,42.3585499,-71.08724959999999,3.507993,-2.9669538,5.3920116,-0.79315186,0.5521927,-0.121025085,0.050329953,0.023185752,0.02347864,0.009338562,-2.3011417,2.5787416,-0.4724617,-0.030350449,-0.020117024,0.061035395,2.5834258,0.053713392,5.8792515,0.101242065,0.6336168,0.46176213,0.20910077,0.1285997,inf,inf,inf,inf,1,1,1,1,3,1,3,2,6,0,1,1,1,0
539772409,539771767,45936231,42.3585499,-71.08724959999999,3.5112422,-2.9675257,5.396136,-0.79315186,0.5521927,-0.121025085,0.04772766,0.023027554,0.023342239,0.012234201,-2.3011417,2.5787416,-0.4724617,-0.013395195,-0.052144755,-0.12066327,2.5834618,0.053713392,5.8792515,0.101696014,0.6227285,0.46024,0.20529044,0.12795614,inf,inf,inf,inf,1,1,1,1,3,1,3,2,6,0,1,1,1,0
539872001,539871313,45936231,42.3585499,-71.08724959999999,3.5143116,-2.9670389,5.398438,-0.79315186,0.5521927,-0.121025085,0.04800404,0.024150653,0.016861798,0.006952094,-2.3011417,2.5787416,-0.4724617,0.050342396,-0.0037483592,-0.062136464,2.5835001,0.053713392,5.8792515,0.10136509,0.6356912,0.46146575,0.21034102,0.128755,inf,inf,inf,inf,1,1,1,1,3,1,3,2,6,0,1,1,1,0
539971513,539970859,45936231,42.3585499,-71.08724959999999,3.5196087,-2.9712005,5.3993483,-0.79315186,0.5521927,-0.121025085,0.048585806,0.022706566,0.006665387,-0.002728408,-2.3011417,2.5787416,-0.4724617,-0.030622093,0.021647587,-0.077863224,2.5835195,0.053713392,5.8792515,0.1,0.621141,0.45878863,0.20361283,0.12749118,inf,inf,inf,inf,1,1,1,1,3,1,3,2,6,0,1,1,1,0
540071140,540070405,45936231,42.3585499,-71.08724959999999,3.5252082,-2.9752471,5.3984866,-0.79315186,0.5521927,-0.121025085,0.04696623,0.024547935,0.012538617,0.0021225433,-2.3011417,2.5787416,-0.4724617,-0.063090734,-0.010038122,0.26454914,2.5835047,0.053713392,5.8792515,0.1,0.6339685,0.46001095,0.20866562,0.12829141,inf,inf,inf,inf,1,1,1,1,3,1,3,2,6,0,1,1,1,0
540170530,540169951,45936231,42.3585499,-71.08724959999999,3.5329506,-2.982538,5.400541,-0.79315186,0.5521927,-0.121025085,0.044331882,0.024913253,0.025771262,0.016550299,-2.3011417,2.5787416,-0.4724617,-0.017409572,0.052062407,0.21151483,2.5834944,0.053713392,5.8792515,0.1031003,0.61152923,0.45828453,0.19527456,0.12603396,inf,inf,inf,inf,1,1,1,1,3,1,3,2,6,0,1,1,1,0
540270080,540269497,45936231,42.3585499,-71.08724959999999,3.5405097,-2.98903,5.4029474,-0.79315186,0.5521927,-0.121025085,0.04570629,0.021983776,0.02361184,0.014928854,-2.3011417,2.5787416,-0.4724617,0.040010005,-0.031659503,-0.17220655,2.5834785,0.053713392,5.8792515,0.1,0.6235378,0.45949352,0.20006838,0.12686932,inf,inf,inf,inf,1,1,1,1,3,1,3,2,6,0,1,1,1,0
540369702,540369043,45936231,42.3585499,-71.08724959999999,3.5495179,-2.9959314,5.402407,-0.79315186,0.5521927,-0.121025085,0.04735287,0.017836796,0.01620102,0.005779038,-2.3011417,2.5787416,-0.4724617,0.016156495,0.00047309487,-0.14439,2.5834904,0.053713392,5.8792515,0.1,0.60405886,0.45434913,0.18913303,0.12435407,inf,inf,inf,inf,1,1,1,1,3,1,3,2,6,0,1,1,1,0
540469152,540468590,45936231,42.3585499,-71.08724959999999,3.5580904,-3.001388,5.401223,-0.79315186,0.5521927,-0.121025085,0.04976832,0.016680704,0.009806855,-0.0021255298,-2.3011417,2.5787416,-0.4724617,0.009450201,-0.007770301,-0.008443961,2.5834358,0.053713392,5.8792515,0.1,0.6154643,0.45551935,0.19390748,0.12520997,inf,inf,inf,inf,1,1,1,1,3,1,3,2,6,0,1,1,1,0
540568956,540568136,45936231,42.3585499,-71.08724959999999,3.5652218,-3.0111651,5.3992605,-0.79315186,0.5521927,-0.121025085,0.050260387,0.015647644,0.009290536,-0.0043481435,-2.3011417,2.5787416,-0.4724617,0.0427024,0.016845966,-0.06896683,2.5833027,0.053713392,5.8792515,0.1,0.59552246,0.44974092,0.1824323,0.122367226,inf,inf,inf,inf,1,1,1,1,3,1,3,2,6,0,1,1,1,0
540668792,540667682,45936231,42.3585499,-71.08724959999999,3.5712767,-3.0201228,5.3967977,-0.79315186,0.5521927,-0.121025085,0.049523823,0.012435028,0.00643756,-0.009023489,-2.3011417,2.5787416,-0.4724617,-0.0068866075,-0.021083621,0.009473802,2.5831904,0.053713392,5.8792515,0.1,0.60625374,0.45090127,0.18706934,0.1232597,inf,inf,inf,inf,1,1,1,1,3,1,3,2,6,0,1,1,1,0
540777921,540777182,45936231,42.3585499,-71.08724959999999,3.5763924,-3.0353606,5.3953524,-0.79315186,0.5521927,-0.121025085,0.046864767,0.006563836,0.014616036,-0.0016433287,-2.3011417,2.5787416,-0.4724617,-0.017394917,-0.039162718,0.10003006,2.5830722,0.053713392,5.8792515,0.1,0.5912194,0.44733888,0.17936163,0.12134307,inf,inf,inf,inf,1,1,1,1,3,1,3,2,6,0,1,1,1,0
540877283,540876728,45936231,42.3585499,-71.08724959999999,3.5802426,-3.0477974,5.39505,-0.79315186,0.5521927,-0.121025085,0.045068514,0.0015612711,0.015197479,-0.0012648469,-2.3011417,2.5787416,-0.4724617,0.020223368,-0.006702668,-0.043968838,2.5829732,0.053713392,5.8792515,0.1,0.601631,0.45222163,0.18392839,0.12276841,inf,inf,inf,inf,1,1,1,1,3,1,3,2,6,0,1,1,1,0
540976893,540976274,45936231,42.3585499,-71.08724959999999,3.5798793,-3.0649786,5.3914475,-0.79315186,0.5521927,-0.121025085,0.041543137,-0.0053740633,0.013469403,-0.0062722676,-2.3011417,2.5787416,-0.4724617,0.031516094,-0.0020024818,-0.00231924,2.5828824,0.053713392,5.8792515,0.1,0.5859465,0.44769302,0.17605473,0.120639525,inf,inf,inf,inf,1,1,1,1,3,1,3,2,6,0,1,1,1,0
541076393,541075820,45936231,42.3585499,-71.08724959999999,3.5791278,-3.0794249,5.387759,-0.79315186,0.5521927,-0.121025085,0.03639268,-0.0081260335,0.017625915,-0.005243224,-2.3011417,2.5787416,-0.4724617,-0.023495527,0.04898319,0.08034597,2.582759,0.053713392,5.8792515,0.1,0.59601015,0.44884914,0.18061912,0.121580556,inf,inf,inf,inf,1,1,1,1,3,1,3,2,6,0,1,1,1,0
541175958,541175366,45936231,42.3585499,-71.08724959999999,3.5813034,-3.096545,5.383281,-0.79315186,0.5521927,-0.121025085,0.03304195,-0.012556436,0.018369231,-0.008398848,-2.3011417,2.5787416,-0.4724617,-0.019624082,-0.012934614,-0.06352044,2.582666,0.053713392,5.8792515,0.1,0.58437,0.44617927,0.17640448,0.12045214,inf,inf,inf,inf,1,1,1,1,3,1,3,2,6,0,1,1,1,0
541275559,541274912,45936231,42.3585499,-71.08724959999999,3.5837998,-3.1108322,5.379872,-0.79315186,0.5521927,-0.121025085,0.031614777,-0.01778428,0.013366135,-0.01549394,-2.3011417,2.5787416,-0.4724617,0.0125748925,-0.015518567,-0.022473382,2.5826557,0.053713392,5.8792515,0.1,0.5944344,0.44733742,0.1809849,0.12139773,inf,inf,inf,inf,1,1,1,1,3,1,3,2,6,0,1,1,1,0
541375107,541374459,45936231,42.3585499,-71.08724959999999,3.5841327,-3.1292498,5.3738804,-0.79315186,0.5521927,-0.121025085,0.027741412,-0.024054937,0.010637148,-0.022112098,-2.3011417,2.5787416,-0.4724617,-0.01650918,0.013856653,0.066474184,2.5826697,0.053713392,5.8792515,0.1,0.5817994,0.44418347,0.17579456,0.11999876,inf,inf,inf,inf,1,1,1,1,3,1,3,2,6,0,1,1,1,0
541474577,541474005,45936231,42.3585499,-71.08724959999999,3.5840712,-3.1449163,5.368241,-0.79315186,0.5521927,-0.121025085,0.025369149,-0.028920736,0.013613746,-0.022532826,-2.3011417,2.5787416,-0.4724617,0.052325465,-0.007861971,-0.061115507,2.5826812,0.053713392,5.8792515,0.1,0.5917743,0.44900292,0.18039638,0.12144844,inf,inf,inf,inf,1,1,1,1,3,1,3,2,6,0,1,1,1,0
541574160,541573551,45936231,42.3585499,-71.08724959999999,3.5868976,-3.1564217,5.363322,-0.79315186,0.5521927,-0.121025085,0.024618108,-0.030443368,0.012621097,-0.025642587,-2.3011417,2.5787416,-0.4724617,-0.003880513,0.024515495,0.0783288,2.5826535,0.053713392,5.8792515,0.1,0.57930267,0.44586137,0.17525847,0.12006609,inf,inf,inf,inf,1,1,1,1,3,1,3,2,6,0,1,1,1,0
541673685,541673097,45936231,42.3585499,-71.08724959999999,3.5901806,-3.1648836,5.359602,-0.79315186,0.5521927,-0.121025085,0.022756403,-0.031251546,0.014457408,-0.024781425,-2.3011417,2.5787416,-0.4724617,0.003024057,-0.01300529,0.013888056,2.5825953,0.053713392,5.8792515,0.1,0.58919775,0.44705838,0.17986254,0.12104163,inf,inf,inf,inf,1,1,1,1,3,1,3,2,6,0,1,1,1,0
541773343,541772646,45936231,42.3585499,-71.08724959999999,3.595133,-3.1751199,5.357122,-0.79315186,0.5521927,-0.121025085,0.021181308,-0.033106826,0.012437492,-0.026371533,-2.3011417,2.5787416,-0.4724617,-0.01998096,-0.005814802,0.023608854,2.58258,0.053713392,5.8792515,0.1,0.5808074,0.44593242,0.17857051,0.12074611,inf,inf,inf,inf,1,1,1,1,3,1,3,2,6,0,1,1,1,0
541872829,541872189,45936231,42.3585499,-71.08724959999999,3.5998843,-3.1844537,5.354587,-0.79315186,0.5521927,-0.121025085,0.021313706,-0.035850268,0.015218833,-0.023415567,-2.3011417,2.5787416,-0.4724617,0.020504225,-0.032229543,-0.046498023,2.582567,0.053713392,5.8792515,0.1,0.59099615,0.4471306,0.18325643,0.12170722,inf,inf,inf,inf,1,1,1,1,3,1,3,2,6,0,1,1,1,0
541972398,541971735,45936231,42.3585499,-71.08724959999999,3.6036584,-3.1932187,5.3515096,-0.79315186,0.5521927,-0.121025085,0.021432446,-0.037207864,0.014689229,-0.024370532,-2.3011417,2.5787416,-0.4724617,0.017716125,0.021643132,0.030167958,2.5825343,0.053713392,5.8792515,0.1,0.58127266,0.4454181,0.18059699,0.12107595,inf,inf,inf,inf,1,1,1,1,3,1,3,2,6,0,1,1,1,0
542071921,542071281,45936231,42.3585499,-71.08724959999999,3.606656,-3.2004848,5.3482194,-0.79315186,0.5521927,-0.121025085,0.019555965,-0.035462584,0.016176539,-0.02341244,-2.3011417,2.5787416,-0.4724617,-0.020124229,0.03685761,0.05915516,2.5824378,0.053713392,5.8792515,0.1,0.59164345,0.4466239,0.1853233,0.122030355,inf,inf,inf,inf,1,1,1,1,3,1,3,2,6,0,1,1,1,0
542171492,542170827,45936231,42.3585499,-71.08724959999999,3.6100612,-3.2129626,5.3441515,-0.79315186,0.5521927,-0.121025085,0.019453008,-0.03792593,0.016822577,-0.02424688,-2.3011417,2.5787416,-0.4724617,-0.008788031,-0.033001725,0.01897562,2.5823383,0.053713392,5.8792515,0.1,0.58246714,0.44886896,0.18310925,0.122042,inf,inf,inf,inf,1,1,1,1,3,1,3,2,6,0,1,1,1,0
542271045,542270373,45936231,42.3585499,-71.08724959999999,3.613012,-3.2244554,5.340357,-0.79315186,0.5521927,-0.121025085,0.019023014,-0.04294919,0.009944371,-0.031875126,-2.3011417,2.5787416,-0.4724617,0.026423424,-0.03710854,-0.083699286,2.5822062,0.053713392,5.8792515,0.1,0.5930767,0.4501272,0.18788145,0.123000056,inf,inf,inf,inf,1,1,1,1,3,1,3,2,6,0,1,1,1,0
542370589,542369919,45936231,42.3585499,-71.08724959999999,3.6135542,-3.2446902,5.334776,-0.79315186,0.5521927,-0.121025085,0.017957997,-0.050403055,0.0006830603,-0.04271442,-2.3011417,2.5787416,-0.4724617,0.0044624195,-0.015233184,-0.032845363,2.5821135,0.053713392,5.8792515,0.1,0.58356243,0.4485878,0.18532203,0.12244064,inf,inf,inf,inf,1,1,1,1,3,1,3,2,6,0,1,1,1,0
542470098,542469465,45936231,42.3585499,-71.08724959999999,3.6136186,-3.2632542,5.328293,-0.79315186,0.5521927,-0.121025085,0.015021722,-0.055479832,-0.0026875737,-0.047742497,-2.3011417,2.5787416,-0.4724617,-0.019030653,-0.01328227,-0.012392568,2.582007,0.053713392,5.8792515,0.1,0.5943903,0.44983697,0.19018008,0.1233846,inf,inf,inf,inf,1,1,1,1,3,1,3,2,6,0,1,1,1,0
542569653,542569011,45936231,42.3585499,-71.08724959999999,3.6183517,-3.2827451,5.3209476,-0.79315186,0.5521927,-0.121025085,0.01408874,-0.061216634,-0.0015342359,-0.048812177,-2.3011417,2.5787416,-0.4724617,0.0033307807,-0.01022766,0.026763774,2.5818892,0.053713392,5.8792515,0.1,0.58443666,0.44814873,0.18712929,0.12273248,inf,inf,inf,inf,1,1,1,1,3,1,3,2,6,0,1,1,1,0
542669261,542668558,45936231,42.3585499,-71.08724959999999,3.623009,-3.299523,5.3140044,-0.79315186,0.5521927,-0.121025085,0.013028307,-0.065478645,-0.0006768377,-0.04971899,-2.3011417,2.5787416,-0.4724617,-0.03010557,-0.0033875129,0.0011678562,2.5817885,0.053713392,5.8792515,0.1,0.5954483,0.44938573,0.19197455,0.1236631,inf,inf,inf,inf,1,1,1,1,3,1,3,2,6,0,1,1,1,0
542768731,542768104,45936231,42.3585499,-71.08724959999999,3.628101,-3.311133,5.307654,-0.79315186,0.5521927,-0.121025085,0.012341458,-0.06578739,0.0025263242,-0.04766099,-2.3011417,2.5787416,-0.4724617,-0.020810138,-0.019457653,-0.046816394,2.5816822,0.053713392,5.8792515,0.1,0.58117664,0.44955537,0.18481077,0.12250935,inf,inf,inf,inf,1,1,1,1,3,1,3,2,6,0,1,1,1,0
542868593,542867650,45936231,42.3585499,-71.08724959999999,3.6325355,-3.3201199,5.3006444,-0.79315186,0.5521927,-0.121025085,0.012314664,-0.06827859,-0.004690805,-0.056349717,-2.3011417,2.5787416,-0.4724617,-0.0018322897,-0.034086496,-0.11840063,2.5816483,0.053713392,5.8792515,0.1,0.5919756,0.45082536,0.18960375,0.12346185,inf,inf,inf,inf,1,1,1,1,3,1,3,2,6,0,1,1,1,0
542977851,542977150,45936231,42.3585499,-71.08724959999999,3.6397846,-3.3288028,5.292923,-0.79315186,0.5521927,-0.121025085,0.013910484,-0.06727875,-0.007444675,-0.05990771,-2.3011417,2.5787416,-0.4724617,-0.0062098033,-0.017346567,0.017135054,2.5816178,0.053713392,5.8792515,0.1,0.58061975,0.4488796,0.1846693,0.122394696,inf,inf,inf,inf,1,1,1,1,3,1,3,2,6,0,1,1,1,0
543077279,543076696,45936231,42.3585499,-71.08724959999999,3.6459308,-3.3357959,5.2871623,-0.79315186,0.5521927,-0.121025085,0.014874654,-0.06790834,-0.011359751,-0.063074276,-2.3011417,2.5787416,-0.4724617,-0.011841722,-0.008084011,-0.026892534,2.5815673,0.053713392,5.8792515,0.100018024,0.5914194,0.45013887,0.18948224,0.1233451,inf,inf,inf,inf,1,1,1,1,3,1,3,2,6,0,1,1,1,0
543176849,543176242,45936231,42.3585499,-71.08724959999999,3.6454196,-3.345798,5.2819343,-0.79315186,0.5521927,-0.121025085,0.01189,-0.069655694,-0.014814482,-0.06495207,-2.3011417,2.5787416,-0.4724617,-0.012243676,-0.030971725,-0.028295225,2.581536,0.053713392,5.8792515,0.10249615,0.58036566,0.44794726,0.18532157,0.12241238,inf,inf,inf,inf,1,1,1,1,3,1,3,2,6,0,1,1,1,0
543276395,543275789,45936231,42.3585499,-71.08724959999999,3.6429508,-3.3559005,5.277326,-0.79315186,0.5521927,-0.121025085,0.008741602,-0.07048456,-0.015778173,-0.06373982,-2.3011417,2.5787416,-0.4724617,-0.009056508,-0.0058940733,-0.04875163,2.5814908,0.053713392,5.8792515,0.10503054,0.5912376,0.44919077,0.19015598,0.1233542,inf,inf,inf,inf,1,1,1,1,3,1,3,2,6,0,1,1,1,0
543375950,543375335,45936231,42.3585499,-71.08724959999999,3.6406128,-3.3640332,5.2725606,-0.79315186,0.5521927,-0.121025085,0.0066020414,-0.06993886,-0.017740794,-0.06377751,-2.3011417,2.5787416,-0.4724617,0.011978565,0.0027080958,-0.02028736,2.5814505,0.053713392,5.8792515,0.10271168,0.5801961,0.44703242,0.18594016,0.12242849,inf,inf,inf,inf,1,1,1,1,3,1,3,2,6,0,1,1,1,0
543475531,543474881,45936231,42.3585499,-71.08724959999999,3.638499,-3.3708882,5.2675033,-0.79315186,0.5521927,-0.121025085,0.00475372,-0.07013637,-0.017874729,-0.062427536,-2.3011417,2.5787416,-0.4724617,0.0299191,0.0014382608,-0.006767583,2.5814092,0.053713392,5.8792515,0.102834225,0.59113973,0.44828796,0.19077897,0.12336883,inf,inf,inf,inf,1,1,1,1,3,1,3,2,6,0,1,1,1,0
543575074,543574427,45936231,42.3585499,-71.08724959999999,3.6400328,-3.372204,5.2635565,-0.79315186,0.5521927,-0.121025085,0.0043468727,-0.06794769,-0.021581125,-0.06346879,-2.3011417,2.5787416,-0.4724617,-0.020736774,-0.00750536,0.022851357,2.5813243,0.053713392,5.8792515,0.1070776,0.5801649,0.4498554,0.18659684,0.12296627,inf,inf,inf,inf,1,1,1,1,3,1,3,2,6,0,1,1,1,0
543674534,543673973,45936231,42.3585499,-71.08724959999999,3.6422381,-3.37237,5.2593555,-0.79315186,0.5521927,-0.121025085,0.0030432201,-0.06518399,-0.0135865025,-0.053626005,-2.3011417,2.5787416,-0.4724617,-0.012997988,-0.03835677,0.023226358,2.5812519,0.053713392,5.8792515,0.1046505,0.5911874,0.45113978,0.19145654,0.123911195,inf,inf,inf,inf,1,1,1,1,3,1,3,2,6,0,1,1,1,0
543774078,543773519,45936231,42.3585499,-71.08724959999999,3.6458592,-3.372053,5.2568154,-0.79315186,0.5521927,-0.121025085,0.0037352694,-0.06229417,-0.017098013,-0.054225117,-2.3011417,2.5787416,-0.4724617,-0.0015893847,-0.015631853,-0.10125538,2.5811872,0.053713392,5.8792515,0.10808468,0.57659006,0.44739622,0.1838368,0.12212641,inf,inf,inf,inf,1,1,1,1,3,1,3,2,6,0,1,1,1,0
543873629,543873065,45936231,42.3585499,-71.08724959999999,3.6492836,-3.372215,5.253745,-0.79315186,0.5521927,-0.121025085,0.0029625448,-0.0583927,-0.019386878,-0.054011755,-2.3011417,2.5787416,-0.4724617,0.010785794,0.014350168,0.060057852,2.5810614,0.053713392,5.8792515,0.10408449,0.5873573,0.44865137,0.18864377,0.12307667,inf,inf,inf,inf,1,1,1,1,3,1,3,2,6,0,1,1,1,0
543973258,543972611,45936231,42.3585499,-71.08724959999999,3.6576767,-3.3753717,5.250844,-0.79315186,0.5521927,-0.121025085,0.004250657,-0.056724776,-0.012584765,-0.044980597,-2.3011417,2.5787416,-0.4724617,-0.019178335,0.0021691378,-0.053817622,2.5809412,0.053713392,5.8792515,0.1082263,0.576214,0.4463617,0.18428816,0.12208397,inf,inf,inf,inf,1,1,1,1,3,1,3,2,6,0,1,1,1,0
544072875,544072157,45936231,42.3585499,-71.08724959999999,3.6662884,-3.3795412,5.2485013,-0.79315186,0.5521927,-0.121025085,0.0072546657,-0.054381363,-0.010082419,-0.04051404,-2.3011417,2.5787416,-0.4724617,0.0005869612,0.079403065,0.1280824,2.580822,0.053713392,5.8792515,0.106253624,0.58703315,0.45132062,0.18906048,0.12354162,inf,inf,inf,inf,1,1,1,1,3,1,3,2,6,0,1,1,1,0
544172303,544171704,45936231,42.3585499,-71.08724959999999,3.6734517,-3.3789246,5.246054,-0.79315186,0.5521927,-0.121025085,0.009231604,-0.050044037,-0.008308904,-0.037295725,-2.3011417,2.5787416,-0.4724617,-0.00427711,-0.014843748,0.016896693,2.5807042,0.053713392,5.8792515,0.1054368,0.5762901,0.44919613,0.1850813,0.12264875,inf,inf,inf,inf,1,1,1,1,3,1,3,2,6,0,1,1,1,0
544271853,544271250,45936231,42.3585499,-71.08724959999999,3.6792698,-3.3774683,5.242191,-0.79315186,0.5521927,-0.121025085,0.010765229,-0.04679932,-0.008025954,-0.037179306,-2.3011417,2.5787416,-0.4724617,-0.0026470765,-0.008968044,0.022950104,2.5806198,0.053713392,5.8792515,0.10277367,0.5872009,0.45049354,0.18988928,0.123603724,inf,inf,inf,inf,1,1,1,1,3,1,3,2,6,0,1,1,1,0
544371356,544370796,45936231,42.3585499,-71.08724959999999,3.6814034,-3.3750904,5.239147,-0.79315186,0.5521927,-0.121025085,0.009553234,-0.043306936,-0.0073619103,-0.035877008,-2.3011417,2.5787416,-0.4724617,-0.00083187554,0.0064960737,-0.043843944,2.580574,0.053713392,5.8792515,0.10469961,0.5753357,0.4479408,0.18488495,0.122465044,inf,inf,inf,inf,1,1,1,1,3,1,3,2,6,0,1,1,1,0
544470921,544470342,45936231,42.3585499,-71.08724959999999,3.6821675,-3.373252,5.235902,-0.79315186,0.5521927,-0.121025085,0.009142278,-0.040384598,-0.0062135207,-0.03439021,-2.3011417,2.5787416,-0.4724617,-0.014059447,-0.0832906,0.09696423,2.5805538,0.053713392,5.8792515,0.103785515,0.58624065,0.44923234,0.18969451,0.1234179,inf,inf,inf,inf,1,1,1,1,3,1,3,2,6,0,1,1,1,0
544570475,544569888,45936231,42.3585499,-71.08724959999999,3.6871166,-3.371288,5.2353406,-0.79315186,0.5521927,-0.121025085,0.009896277,-0.03974161,-0.0043348367,-0.029761573,-2.3011417,2.5787416,-0.4724617,-0.0023381163,0.00263972,0.0354142,2.5805497,0.053713392,5.8792515,0.10848379,0.5746262,0.44677463,0.184883,0.122327164,inf,inf,inf,inf,1,1,1,1,3,1,3,2,6,0,1,1,1,0
544670061,544669434,45936231,42.3585499,-71.08724959999999,3.6927862,-3.370002,5.2348576,-0.79315186,0.5521927,-0.121025085,0.014249123,-0.035029147,-0.0029883005,-0.026192315,-2.3011417,2.5787416,-0.4724617,0.0426078,0.057608392,0.07603236,2.5805643,0.053713392,5.8792515,0.1079011,0.5855444,0.44804683,0.18969049,0.123273306,inf,inf,inf,inf,1,1,1,1,3,1,3,2,6,0,1,1,1,0
544769557,544768980,45936231,42.3585499,-71.08724959999999,3.700925,-3.3686516,5.2344203,-0.79315186,0.5521927,-0.121025085,0.018770566,-0.031575166,-0.0069594462,-0.028045021,-2.3011417,2.5787416,-0.4724617,0.02656441,0.016338049,-0.116620615,2.5805583,0.053713392,5.8792515,0.10727167,0.5759583,0.45013812,0.18668313,0.12315345,inf,inf,inf,inf,1,1,1,1,3,1,3,2,6,0,1,1,1,0
544869094,544868526,45936231,42.3585499,-71.08724959999999,3.7089348,-3.367805,5.2325487,-0.79315186,0.5521927,-0.121025085,0.022364413,-0.029098772,-0.008331819,-0.0285029,-2.3011417,2.5787416,-0.4724617,0.004495027,-0.0067753186,0.02580644,2.5805392,0.053713392,5.8792515,0.105190754,0.5870693,0.4514434,0.19154695,0.12409891,inf,inf,inf,inf,1,1,1,1,3,1,3,2,6,0,1,1,1,0
544968692,544968073,45936231,42.3585499,-71.08724959999999,3.715322,-3.3703008,5.2308483,-0.79315186,0.5521927,-0.121025085,0.024651501,-0.030298851,-0.0028663683,-0.022335522,-2.3011417,2.5787416,-0.4724617,0.0070647676,-0.011720516,0.0863631,2.58054,0.053713392,5.8792515,0.106163025,0.5799738,0.45087954,0.19070914,0.12402309,inf,inf,inf,inf,1,1,1,1,3,1,3,2,6,0,1,1,1,0
545078414,545077573,45936231,42.3585499,-71.08724959999999,3.721193,-3.3738556,5.2297006,-0.79315186,0.5521927,-0.121025085,0.025701713,-0.032450914,-0.00058343855,-0.019174738,-2.3011417,2.5787416,-0.4724617,-0.018955162,-0.055989694,-0.16007097,2.5805495,0.053713392,5.8792515,0.10376167,0.59268737,0.45309466,0.19609362,0.12514897,inf,inf,inf,inf,1,1,1,1,3,1,3,2,6,0,1,1,1,0
545168209,545167165,45936231,42.3585499,-71.08724959999999,3.7284608,-3.374543,5.228105,-0.79315186,0.5521927,-0.121025085,0.026709067,-0.029371178,0.0013135998,-0.017443592,-2.3011417,2.5787416,-0.4724617,0.0064171,0.08377551,0.0016153699,2.5805063,0.053713392,5.8792515,0.1,0.5811594,0.4503884,0.19170494,0.12417661,inf,inf,inf,inf,1,1,1,1,3,1,3,2,6,0,1,1,1,0
545277246,545276665,45936231,42.3585499,-71.08724959999999,3.7368739,-3.3749244,5.224585,-0.79315186,0.5521927,-0.121025085,0.030719439,-0.0249768,-0.0054916563,-0.025467897,-2.3011417,2.5787416,-0.4724617,0.011533325,0.03240227,-0.04427797,2.5803833,0.053713392,5.8792515,0.1,0.59401727,0.4525837,0.19712391,0.12528764,inf,inf,inf,inf,1,1,1,1,3,1,3,2,6,0,1,1,1,0
545376942,545376212,45936231,42.3585499,-71.08724959999999,3.7362149,-3.378473,5.224341,-0.79315186,0.5521927,-0.121025085,0.028959937,-0.024590502,-0.0044035646,-0.02221871,-2.3011417,2.5787416,-0.4724617,-0.018060666,-0.008134997,0.08888205,2.5802372,0.053713392,5.8792515,0.1081481,0.58073807,0.44958857,0.1906227,0.12387936,inf,inf,inf,inf,1,1,1,1,3,1,3,2,6,0,1,1,1,0
545476421,545475758,45936231,42.3585499,-71.08724959999999,3.7346792,-3.38235,5.2245755,-0.79315186,0.5521927,-0.121025085,0.027094597,-0.026241168,-0.0049982616,-0.020613797,-2.3011417,2.5787416,-0.4724617,0.0005751144,0.004750708,0.009265356,2.5801373,0.053713392,5.8792515,0.105983734,0.59232545,0.45087424,0.19551897,0.12478958,inf,inf,inf,inf,1,1,1,1,3,1,3,2,6,0,1,1,1,0
545575864,545575304,45936231,42.3585499,-71.08724959999999,3.7308586,-3.3853261,5.2243276,-0.79315186,0.5521927,-0.121025085,0.024724677,-0.027899532,-0.011680273,-0.02539704,-2.3011417,2.5787416,-0.4724617,-0.035243154,-0.020349067,-0.11162511,2.5800486,0.053713392,5.8792515,0.10691595,0.58355767,0.45341873,0.19298849,0.12486277,inf,inf,inf,inf,1,1,1,1,3,1,3,2,6,0,1,1,1,0
545675490,545674850,45936231,42.3585499,-71.08724959999999,3.72771,-3.3880887,5.2238574,-0.79315186,0.5521927,-0.121025085,0.022097299,-0.026752762,-0.0074117836,-0.019359604,-2.3011417,2.5787416,-0.4724617,-0.035410453,-0.07949676,-0.15280092,2.579938,0.053713392,5.8792515,0.10828686,0.59540904,0.45474908,0.19795732,0.12577155,inf,inf,inf,inf,1,1,1,1,3,1,3,2,6,0,1,1,1,0
545775075,545774396,45936231,42.3585499,-71.08724959999999,3.7248733,-3.39317,5.2216887,-0.79315186,0.5521927,-0.121025085,0.019010894,-0.026900005,-0.006698404,-0.01926843,-2.3011417,2.5787416,-0.4724617,-0.055710096,-0.08199587,-0.1532837,2.5797637,0.053713392,5.8792515,0.101276875,0.587507,0.45392278,0.19613163,0.12551458,inf,inf,inf,inf,1,1,1,1,3,1,3,2,6,0,1,1,1,0
545874500,545873942,45936231,42.3585499,-71.08724959999999,3.7229035,-3.3983915,5.2186794,-0.79315186,0.5521927,-0.121025085,0.01976307,-0.026089517,-0.0080307815,-0.02186269,-2.3011417,2.5787416,-0.4724617,0.041162923,0.09890491,0.101077214,2.5795515,0.053713392,5.8792515,0.1,0.59970427,0.45523444,0.20111428,0.12639807,inf,inf,inf,inf,1,1,1,1,3,1,3,2,6,0,1,1,1,0
545974099,545973489,45936231,42.3585499,-71.08724959999999,3.7244194,-3.4009821,5.2158165,-0.79315186,0.5521927,-0.121025085,0.01960317,-0.02500122,-0.0071521215,-0.0218054,-2.3011417,2.5787416,-0.4724617,-0.008324286,-0.006664649,-0.028456356,2.5794573,0.053713392,5.8792515,0.10050821,0.5887958,0.45332998,0.19664283,0.1255499,inf,inf,inf,inf,1,1,1,1,3,1,3,2,6,0,1,1,1,0
546073741,546073035,45936231,42.3585499,-71.08724959999999,3.726952,-3.4028006,5.2125607,-0.79315186,0.5521927,-0.121025085,0.01845069,-0.027348252,-0.009612987,-0.02538955,-2.3011417,2.5787416,-0.4724617,-0.064598665,-0.12448384,-0.17134121,2.5793872,0.053713392,5.8792515,0.1,0.6010799,0.45461386,0.20162341,0.1264183,inf,inf,inf,inf,1,1,1,1,3,1,3,2,6,0,1,1,1,0
546173141,546172581,45936231,42.3585499,-71.08724959999999,3.729509,-3.404339,5.207977,-0.79315186,0.5521927,-0.121025085,0.021004973,-0.025589483,-0.011548376,-0.02950828,-2.3011417,2.5787416,-0.4724617,0.019604392,0.067586266,-0.055706806,2.5793486,0.053713392,5.8792515,0.1,0.5884468,0.45591077,0.19568653,0.1257772,inf,inf,inf,inf,1,1,1,1,3,1,3,2,6,0,1,1,1,0
546272917,546272127,45936231,42.3585499,-71.08724959999999,3.7321696,-3.405709,5.2026615,-0.79315186,0.5521927,-0.121025085,0.023242528,-0.02200599,-0.014092626,-0.03433325,-2.3011417,2.5787416,-0.4724617,0.042209,0.13283385,-0.044539947,2.579303,0.053713392,5.8792515,0.1,0.60066634,0.45721123,0.20065017,0.12665193,inf,inf,inf,inf,1,1,1,1,3,1,3,2,6,0,1,1,1,0
546372354,546371673,45936231,42.3585499,-71.08724959999999,3.7337027,-3.405354,5.198786,-0.79315186,0.5521927,-0.121025085,0.023570959,-0.015809027,-0.0052023595,-0.026165504,-2.3011417,2.5787416,-0.4724617,-0.04183665,0.053266596,0.06693733,2.5792677,0.053713392,5.8792515,0.10297966,0.59170336,0.45600176,0.19788605,0.12618159,inf,inf,inf,inf,1,1,1,1,3,1,3,2,6,0,1,1,1,0
546471821,546471219,45936231,42.3585499,-71.08724959999999,3.7348034,-3.404723,5.196457,-0.79315186,0.5521927,-0.121025085,0.019324169,-0.017278582,-0.0036656265,-0.024368105,-2.3011417,2.5787416,-0.4724617,-0.10562492,-0.17469223,-0.09656976,2.5792646,0.053713392,5.8792515,0.103357315,0.6041749,0.45730823,0.20283422,0.12704293,inf,inf,inf,inf,1,1,1,1,3,1,3,2,6,0,1,1,1,0
546571411,546570765,45936231,42.3585499,-71.08724959999999,3.7366471,-3.4007714,5.1956086,-0.79315186,0.5521927,-0.121025085,0.01885739,-0.0159535,-0.005493917,-0.024665661,-2.3011417,2.5787416,-0.4724617,0.014403106,0.010792937,0.02506243,2.5792804,0.053713392,5.8792515,0.10533905,0.5941093,0.45578012,0.19913314,0.12638882,inf,inf,inf,inf,1,1,1,1,3,1,3,2,6,0,1,1,1,0
546670961,546670311,45936231,42.3585499,-71.08724959999999,3.738744,-3.3966312,5.1945434,-0.79315186,0.5521927,-0.121025085,0.020176377,-0.012285253,-0.0100604715,-0.027810482,-2.3011417,2.5787416,-0.4724617,0.03940271,0.041508693,-0.0634238,2.5792418,0.053713392,5.8792515,0.105677605,0.60674286,0.45705757,0.20414677,0.12723131,inf,inf,inf,inf,1,1,1,1,3,1,3,2,6,0,1,1,1,0
546770519,546769858,45936231,42.3585499,-71.08724959999999,3.7432525,-3.390993,5.1940107,-0.79315186,0.5521927,-0.121025085,0.023564063,-0.008393558,-0.010245696,-0.025702897,-2.3011417,2.5787416,-0.4724617,0.12226706,0.10115288,0.005777697,2.5791397,0.053713392,5.8792515,0.10775757,0.59570813,0.45524535,0.19969997,0.12641917,inf,inf,inf,inf,1,1,1,1,3,1,3,2,6,0,1,1,1,0
546870071,546869404,45936231,42.3585499,-71.08724959999999,3.7486813,-3.3851821,5.1939063,-0.79315186,0.5521927,-0.121025085,0.02485047,-0.0048137903,-0.010923466,-0.024042632,-2.3011417,2.5787416,-0.4724617,-0.022248916,-0.04509101,0.06750466,2.578982,0.053713392,5.8792515,0.108820915,0.6084285,0.46045607,0.20470789,0.12782764,inf,inf,inf,inf,1,1,1,1,3,1,3,2,6,0,1,1,1,0
546969514,546968950,45936231,42.3585499,-71.08724959999999,3.758586,-3.3780181,5.1948113,-0.79315186,0.5521927,-0.121025085,0.02775034,0.00047964984,-0.010976864,-0.021040168,-2.3011417,2.5787416,-0.4724617,-0.00040818707,0.024369944,-0.05685279,2.5788603,0.053713392,5.8792515,0.11136341,0.59699374,0.45843837,0.19991744,0.1269236,inf,inf,inf,inf,1,1,1,1,3,1,3,2,6,0,1,1,1,0
547069057,547068496,45936231,42.3585499,-71.08724959999999,3.7686813,-3.3714209,5.1954484,-0.79315186,0.5521927,-0.121025085,0.030158438,0.0050576893,-0.009191093,-0.016868042,-2.3011417,2.5787416,-0.4724617,0.0151038915,0.06768058,0.09294101,2.5787745,0.053713392,5.8792515,0.10574007,0.6097647,0.45971566,0.20492113,0.12775497,inf,inf,inf,inf,1,1,1,1,3,1,3,2,6,0,1,1,1,0
547178560,547177997,45936231,42.3585499,-71.08724959999999,3.778399,-3.3612823,5.197101,-0.79315186,0.5521927,-0.121025085,0.033335645,0.010634619,-0.0004163231,-0.0052215555,-2.3011417,2.5787416,-0.4724617,-0.008607005,-0.026059894,0.07311545,2.5786836,0.053713392,5.8792515,0.10951996,0.6009214,0.459133,0.20174485,0.12731306,inf,inf,inf,inf,1,1,1,1,3,1,3,2,6,0,1,1,1,0
547268172,547267589,45936231,42.3585499,-71.08724959999999,3.785257,-3.353458,5.1991315,-0.79315186,0.5521927,-0.121025085,0.035198398,0.014221633,0.006091857,0.0032058712,-2.3011417,2.5787416,-0.4724617,-0.01609555,-0.047121197,-0.06967552,2.5786285,0.053713392,5.8792515,0.108477116,0.6125884,0.45949376,0.20623434,0.12793608,inf,inf,inf,inf,1,1,1,1,3,1,3,2,6,0,1,1,1,0
547377973,547377089,45936231,42.3585499,-71.08724959999999,3.7935114,-3.3483424,5.201191,-0.79315186,0.5521927,-0.121025085,0.038293965,0.015713569,0.005002366,0.003530165,-2.3011417,2.5787416,-0.4724617,0.03663154,-0.016073195,-0.08581679,2.5785975,0.053713392,5.8792515,0.10206032,0.60082597,0.45791242,0.20067,0.1269695,inf,inf,inf,inf,1,1,1,1,3,1,3,2,6,0,1,1,1,0
547467330,547466681,45936231,42.3585499,-71.08724959999999,3.799685,-3.3456128,5.2009444,-0.79315186,0.5521927,-0.121025085,0.040239237,0.016723942,0.0027075964,0.0006017539,-2.3011417,2.5787416,-0.4724617,0.025628598,0.045619197,-0.098490015,2.5785723,0.053713392,5.8792515,0.10093403,0.6124202,0.46223554,0.20516312,0.12817165,inf,inf,inf,inf,1,1,1,1,3,1,3,2,6,0,1,1,1,0
547576741,547576181,45936231,42.3585499,-71.08724959999999,3.8023357,-3.3353417,5.202347,-0.79315186,0.5521927,-0.121025085,0.03934559,0.021193536,0.00083755085,-3.9083825e-06,-2.3011417,2.5787416,-0.4724617,-0.019519476,0.059206057,0.049983025,2.5784695,0.053713392,5.8792515,0.106766224,0.603555,0.4616357,0.20206293,0.12772799,inf,inf,inf,inf,1,1,1,1,3,1,3,2,6,0,1,1,1,0
547676331,547675728,45936231,42.3585499,-71.08724959999999,3.8036928,-3.3255248,5.202127,-0.79315186,0.5521927,-0.121025085,0.038199637,0.026241357,0.003088885,0.0017053203,-2.3011417,2.5787416,-0.4724617,0.0076805744,-0.053620588,0.10231495,2.5783992,0.053713392,5.8792515,0.10029936,0.61663,0.46290144,0.20708364,0.12853669,inf,inf,inf,inf,1,1,1,1,3,1,3,2,6,0,1,1,1,0
547775896,547775274,45936231,42.3585499,-71.08724959999999,3.812845,-3.3176205,5.2034082,-0.79315186,0.5521927,-0.121025085,0.040113386,0.030528761,0.006152246,0.0055567008,-2.3011417,2.5787416,-0.4724617,0.03922726,0.05522318,0.25614497,2.5783658,0.053713392,5.8792515,0.10533619,0.6055062,0.46112472,0.20273367,0.12775742,inf,inf,inf,inf,1,1,1,1,3,1,3,2,6,0,1,1,1,0
547875395,547874820,45936231,42.3585499,-71.08724959999999,3.8234289,-3.3110607,5.203771,-0.79315186,0.5521927,-0.121025085,0.042693034,0.031883124,0.0073104915,0.0062301066,-2.3011417,2.5787416,-0.4724617,0.0015533286,-0.010569961,-0.022027276,2.5783913,0.053713392,5.8792515,0.1,0.61867106,0.46237153,0.20774108,0.12855425,inf,inf,inf,inf,1,1,1,1,3,1,3,2,6,0,1,1,1,0
547974991,547974366,45936231,42.3585499,-71.08724959999999,3.826354,-3.3102126,5.20509,-0.79315186,0.5521927,-0.121025085,0.041493528,0.030251594,0.0064864946,0.0059208684,-2.3011417,2.5787416,-0.4724617,-0.026681278,0.043305844,0.2749331,2.578448,0.053713392,5.8792515,0.10223341,0.6034436,0.4591828,0.20010984,0.12703869,inf,inf,inf,inf,1,1,1,1,3,1,3,2,6,0,1,1,1,0
548074472,548073912,45936231,42.3585499,-71.08724959999999,3.8270662,-3.3108244,5.206184,-0.79315186,0.5521927,-0.121025085,0.03993367,0.02990338,0.006708337,0.006421605,-2.3011417,2.5787416,-0.4724617,0.0074571343,0.022863038,-0.007849916,2.57852,0.053713392,5.8792515,0.102641106,0.61635715,0.4604065,0.2050803,0.12783906,inf,inf,inf,inf,1,1,1,1,3,1,3,2,6,0,1,1,1,0
548174026,548173465,45936231,42.3585499,-71.08724959999999,3.8342109,-3.3086529,5.210476,-0.79315186,0.5521927,-0.121025085,0.040996667,0.031389467,0.008694304,0.011713555,-2.3011417,2.5787416,-0.4724617,0.024543274,0.06610446,-0.009282444,2.578568,0.053713392,5.8792515,0.11174774,0.6038231,0.46205342,0.19963738,0.12735641,inf,inf,inf,inf,1,1,1,1,3,1,3,2,6,0,1,1,1,0
548273600,548273005,45936231,42.3585499,-71.08724959999999,3.8426147,-3.3055599,5.2134976,-0.79315186,0.5521927,-0.121025085,0.042194314,0.032987233,0.010293232,0.014822696,-2.3011417,2.5787416,-0.4724617,0.027381288,0.09973564,0.12720141,2.578603,0.053713392,5.8792515,0.10438776,0.61669856,0.46327403,0.20458661,0.1281579,inf,inf,inf,inf,1,1,1,1,3,1,3,2,6,0,1,1,1,0
548373145,548372551,45936231,42.3585499,-71.08724959999999,3.8589694,-3.2996616,5.2191463,-0.79315186,0.5521927,-0.121025085,0.046882365,0.03590114,0.014201522,0.022423306,-2.3011417,2.5787416,-0.4724617,0.009302651,0.033932183,0.07906529,2.5785904,0.053713392,5.8792515,0.11188269,0.6051388,0.4612289,0.19993208,0.12725934,inf,inf,inf,inf,1,1,1,1,3,1,3,2,6,0,1,1,1,0
548472740,548472097,45936231,42.3585499,-71.08724959999999,3.8759904,-3.2932987,5.2233024,-0.79315186,0.5521927,-0.121025085,0.053729568,0.038737904,0.01901322,0.028561505,-2.3011417,2.5787416,-0.4724617,-0.050307326,-0.16963121,-0.15669163,2.5785139,0.053713392,5.8792515,0.10172653,0.61805314,0.46243194,0.20487733,0.12805331,inf,inf,inf,inf,1,1,1,1,3,1,3,2,6,0,1,1,1,0
548572406,548571644,45936231,42.3585499,-71.08724959999999,3.8923783,-3.2819486,5.227291,-0.79315186,0.5521927,-0.121025085,0.05684049,0.041129496,0.01827543,0.028607907,-2.3011417,2.5787416,-0.4724617,-0.0075734225,-0.0642611,-0.10630055,2.5784688,0.053713392,5.8792515,0.10399532,0.6088156,0.46121922,0.20206782,0.12758279,inf,inf,inf,inf,1,1,1,1,3,1,3,2,6,0,1,1,1,0
548671753,548671190,45936231,42.3585499,-71.08724959999999,3.9069245,-3.2701938,5.2304053,-0.79315186,0.5521927,-0.121025085,0.06143574,0.04513211,0.01956101,0.029636556,-2.3011417,2.5787416,-0.4724617,0.023075983,0.04592987,-0.03622723,2.5784025,0.053713392,5.8792515,0.1,0.6219599,0.4624066,0.20706768,0.12836087,inf,inf,inf,inf,1,1,1,1,3,1,3,2,6,0,1,1,1,0
548771389,548770736,45936231,42.3585499,-71.08724959999999,3.9177427,-3.2608728,5.233127,-0.79315186,0.5521927,-0.121025085,0.06345743,0.04928217,0.019839808,0.02933692,-2.3011417,2.5787416,-0.4724617,-0.013726711,0.00086282945,-0.0023112264,2.5783312,0.053713392,5.8792515,0.1,0.61095136,0.4606409,0.2028567,0.12759633,inf,inf,inf,inf,1,1,1,1,3,1,3,2,6,0,1,1,1,0
548870896,548870282,45936231,42.3585499,-71.08724959999999,3.9266262,-3.252876,5.2356772,-0.79315186,0.5521927,-0.121025085,0.06439618,0.052254878,0.022563465,0.03121163,-2.3011417,2.5787416,-0.4724617,-0.041033257,-0.080340356,-0.15122981,2.5782762,0.053713392,5.8792515,0.1,0.6241864,0.46588302,0.2078598,0.12896734,inf,inf,inf,inf,1,1,1,1,3,1,3,2,6,0,1,1,1,0
548970438,548969828,45936231,42.3585499,-71.08724959999999,3.9333487,-3.245551,5.2402186,-0.79315186,0.5521927,-0.121025085,0.06470617,0.055460148,0.024902182,0.034465045,-2.3011417,2.5787416,-0.4724617,-0.0024442151,-0.037439514,0.070918605,2.5782306,0.053713392,5.8792515,0.1033535,0.6139074,0.46433356,0.20422472,0.12832563,inf,inf,inf,inf,1,1,1,1,3,1,3,2,6,0,1,1,1,0
549070013,549069379,45936231,42.3585499,-71.08724959999999,3.9394236,-3.2386827,5.243593,-0.79315186,0.5521927,-0.121025085,0.06459572,0.057965778,0.023225104,0.032382827,-2.3011417,2.5787416,-0.4724617,0.002512343,0.019202748,-0.05434014,2.5782285,0.053713392,5.8792515,0.1,0.62729394,0.46549886,0.20923972,0.12908578,inf,inf,inf,inf,1,1,1,1,3,1,3,2,6,0,1,1,1,0
549169647,549168921,45936231,42.3585499,-71.08724959999999,3.940292,-3.235295,5.246544,-0.79315186,0.5521927,-0.121025085,0.0615054,0.057682734,0.022100696,0.03078994,-2.3011417,2.5787416,-0.4724617,-0.011384974,0.032143123,-0.0048047313,2.5782385,0.053713392,5.8792515,0.1008296,0.6154217,0.4634885,0.20444319,0.12820405,inf,inf,inf,inf,1,1,1,1,3,1,3,2,6,0,1,1,1,0
549278991,549278421,45936231,42.3585499,-71.08724959999999,3.940199,-3.2323866,5.248768,-0.79315186,0.5521927,-0.121025085,0.05757569,0.056611404,0.021984167,0.029252116,-2.3011417,2.5787416,-0.4724617,0.00052285433,-0.015990183,0.00017823832,2.5782592,0.053713392,5.8792515,0.1,0.63021314,0.46559122,0.2099761,0.1291588,inf,inf,inf,inf,1,1,1,1,3,1,3,2,6,0,1,1,1,0
549368573,549368013,45936231,42.3585499,-71.08724959999999,3.9435968,-3.2293022,5.2521353,-0.79315186,0.5521927,-0.121025085,0.056403093,0.057248373,0.025075933,0.032724675,-2.3011417,2.5787416,-0.4724617,0.011544285,0.019851238,-0.007168031,2.5782838,0.053713392,5.8792515,0.10079956,0.6146674,0.46194035,0.20296946,0.12771484,inf,inf,inf,inf,1,1,1,1,3,1,3,2,6,0,1,1,1,0
549478182,549477514,45936231,42.3585499,-71.08724959999999,3.9486785,-3.2248814,5.2558613,-0.79315186,0.5521927,-0.121025085,0.05526094,0.058417927,0.025486551,0.032932352,-2.3011417,2.5787416,-0.4724617,0.009173263,0.033833127,0.005935599,2.5783482,0.053713392,5.8792515,0.1,0.6292953,0.4640004,0.20844889,0.12866478,inf,inf,inf,inf,1,1,1,1,3,1,3,2,6,0,1,1,1,0
549567876,549567105,45936231,42.3585499,-71.08724959999999,3.9474592,-3.2253551,5.2589602,-0.79315186,0.5521927,-0.121025085,0.051423162,0.05758874,0.026154384,0.033514604,-2.3011417,2.5787416,-0.4724617,-0.0005875399,0.02185183,0.015358113,2.578394,0.053713392,5.8792515,0.1,0.6122117,0.46383125,0.20031324,0.12753057,inf,inf,inf,inf,1,1,1,1,3,1,3,2,6,0,1,1,1,0
549677608,549676606,45936231,42.3585499,-71.08724959999999,3.9456608,-3.2256114,5.261051,-0.79315186,0.5521927,-0.121025085,0.0471647,0.057042375,0.029892724,0.035224974,-2.3011417,2.5787416,-0.4724617,-0.006056845,0.0072718584,0.03340223,2.578397,0.053713392,5.8792515,0.1,0.6265371,0.4659175,0.20574595,0.12850142,inf,inf,inf,inf,1,1,1,1,3,1,3,2,6,0,1,1,1,0
549766776,549766198,45936231,42.3585499,-71.08724959999999,3.9483082,-3.2295718,5.2619834,-0.79315186,0.5521927,-0.121025085,0.045980558,0.0547191,0.030141044,0.033127327,-2.3011417,2.5787416,-0.4724617,0.016844206,0.019983243,0.014329102,2.5783927,0.053713392,5.8792515,0.1,0.6089673,0.4613622,0.19723128,0.12662311,inf,inf,inf,inf,1,1,1,1,3,1,3,2,6,0,1,1,1,0
549876270,549875699,45936231,42.3585499,-71.08724959999999,3.9533486,-3.2345018,5.2618427,-0.79315186,0.5521927,-0.121025085,0.04585131,0.051364068,0.030205693,0.029353572,-2.3011417,2.5787416,-0.4724617,0.0006122693,0.011660436,0.0023143296,2.5784082,0.053713392,5.8792515,0.1,0.62293506,0.46340343,0.20260349,0.12759966,inf,inf,inf,inf,1,1,1,1,3,1,3,2,6,0,1,1,1,0
549975805,549975245,45936231,42.3585499,-71.08724959999999,3.9637346,-3.2407856,5.261441,-0.79315186,0.5521927,-0.121025085,0.04765325,0.047002144,0.03048616,0.026318297,-2.3011417,2.5787416,-0.4724617,0.0030395384,0.008038493,0.054958314,2.5784135,0.053713392,5.8792515,0.1,0.6084037,0.46030256,0.1960195,0.1262,inf,inf,inf,inf,1,1,1,1,3,1,3,2,6,0,1,1,1,0
550075410,550074791,45936231,42.3585499,-71.08724959999999,3.9739492,-3.2453778,5.26079,-0.79315186,0.5521927,-0.121025085,0.04961002,0.043651603,0.027792422,0.020430174,-2.3011417,2.5787416,-0.4724617,0.0059945974,0.0022610363,-0.06954962,2.5784042,0.053713392,5.8792515,0.1,0.6209396,0.46142772,0.20088045,0.12699144,inf,inf,inf,inf,1,1,1,1,3,1,3,2,6,0,1,1,1,0
550175060,550174337,45936231,42.3585499,-71.08724959999999,3.9890695,-3.2490423,5.260896,-0.79315186,0.5521927,-0.121025085,0.053861726,0.04129076,0.026141167,0.017003227,-2.3011417,2.5787416,-0.4724617,0.00031308422,0.004999073,-0.011196464,2.5783558,0.053713392,5.8792515,0.1,0.60640204,0.4582686,0.19432625,0.12556799,inf,inf,inf,inf,1,1,1,1,3,1,3,2,6,0,1,1,1,0
550274511,550273883,45936231,42.3585499,-71.08724959999999,4.0031238,-3.2509925,5.259412,-0.79315186,0.5521927,-0.121025085,0.05699024,0.040335823,0.026629662,0.014383082,-2.3011417,2.5787416,-0.4724617,-0.0139886215,0.016633304,0.018617835,2.5782638,0.053713392,5.8792515,0.1,0.61874485,0.46338847,0.19917277,0.12694736,inf,inf,inf,inf,1,1,1,1,3,1,3,2,6,0,1,1,1,0
550374024,550373430,45936231,42.3585499,-71.08724959999999,4.0105176,-3.2509584,5.258322,-0.79315186,0.5521927,-0.121025085,0.05559412,0.04031968,0.027566418,0.012865657,-2.3011417,2.5787416,-0.4724617,0.001860792,0.012849718,0.011760067,2.5781958,0.053713392,5.8792515,0.1,0.60671544,0.46110559,0.19465475,0.12599245,inf,inf,inf,inf,1,1,1,1,3,1,3,2,6,0,1,1,1,0
550473538,550472976,45936231,42.3585499,-71.08724959999999,4.0154395,-3.2496176,5.258121,-0.79315186,0.5521927,-0.121025085,0.053838003,0.040895887,0.02956426,0.013432199,-2.3011417,2.5787416,-0.4724617,0.0019404703,0.0025548649,0.039691888,2.578135,0.053713392,5.8792515,0.1,0.6190689,0.46221972,0.19950077,0.12679453,inf,inf,inf,inf,1,1,1,1,3,1,3,2,6,0,1,1,1,0
550573110,550572522,45936231,42.3585499,-71.08724959999999,4.0167565,-3.24565,5.2571645,-0.79315186,0.5521927,-0.121025085,0.050956298,0.042176556,0.031173198,0.012807542,-2.3011417,2.5787416,-0.4724617,0.001141062,0.016041659,0.016184459,2.5780814,0.053713392,5.8792515,0.1,0.60499835,0.45921054,0.19337082,0.12546171,inf,inf,inf,inf,1,1,1,1,3,1,3,2,6,0,1,1,1,0
550672633,550672068,45936231,42.3585499,-71.08724959999999,4.017355,-3.2407084,5.255434,-0.79315186,0.5521927,-0.121025085,0.048011545,0.044615686,0.033980843,0.0126820635,-2.3011417,2.5787416,-0.4724617,0.09502841,0.09397662,-0.005077467,2.578008,0.053713392,5.8792515,0.1,0.61719936,0.4602971,0.19819638,0.12626533,inf,inf,inf,inf,1,1,1,1,3,1,3,2,6,0,1,1,1,0
550772326,550771615,45936231,42.3585499,-71.08724959999999,4.0168962,-3.2407064,5.2545424,-0.79315186,0.5521927,-0.121025085,0.044654988,0.04388263,0.036365684,0.012963543,-2.3011417,2.5787416,-0.4724617,0.008988044,0.007222234,-0.02814205,2.577939,0.053713392,5.8792515,0.1,0.59880453,0.45555523,0.18853167,0.124031745,inf,inf,inf,inf,1,1,1,1,3,1,3,2,6,0,1,1,1,0
550871785,550871161,45936231,42.3585499,-71.08724959999999,4.0167027,-3.2414176,5.2526784,-0.79315186,0.5521927,-0.121025085,0.042064425,0.042750657,0.03670826,0.01044418,-2.3011417,2.5787416,-0.4724617,0.002246442,0.013445527,0.04282062,2.5778651,0.053713392,5.8792515,0.1,0.6104895,0.45664147,0.19327636,0.12486393,inf,inf,inf,inf,1,1,1,1,3,1,3,2,6,0,1,1,1,0
550971281,550970707,45936231,42.3585499,-71.08724959999999,4.0181465,-3.243906,5.248848,-0.79315186,0.5521927,-0.121025085,0.040933475,0.03950776,0.035581492,0.0046858285,-2.3011417,2.5787416,-0.4724617,0.01848225,-0.0049036755,-0.023162004,2.5778465,0.053713392,5.8792515,0.1,0.59386593,0.45621377,0.18502441,0.12341687,inf,inf,inf,inf,1,1,1,1,3,1,3,2,6,0,1,1,1,0
551070835,551070254,45936231,42.3585499,-71.08724959999999,4.0204024,-3.245939,5.2446265,-0.79315186,0.5521927,-0.121025085,0.04064148,0.037191365,0.032827932,-0.0022902368,-2.3011417,2.5787416,-0.4724617,0.01704902,0.012171195,-0.0055964864,2.5778394,0.053713392,5.8792515,0.1,0.6051632,0.45730078,0.18972895,0.124274746,inf,inf,inf,inf,1,1,1,1,3,1,3,2,6,0,1,1,1,0
551170363,551169800,45936231,42.3585499,-71.08724959999999,4.022328,-3.2466364,5.2404037,-0.79315186,0.5521927,-0.121025085,0.040755466,0.036284674,0.029315347,-0.009203338,-2.3011417,2.5787416,-0.4724617,0.009717121,-0.019599294,0.03578806,2.5778575,0.053713392,5.8792515,0.1,0.5939169,0.45509195,0.18598795,0.12339812,inf,inf,inf,inf,1,1,1,1,3,1,3,2,6,0,1,1,1,0
551269941,551269346,45936231,42.3585499,-71.08724959999999,4.0244393,-3.2461252,5.2362585,-0.79315186,0.5521927,-0.121025085,0.0401221,0.035702977,0.028270688,-0.012998741,-2.3011417,2.5787416,-0.4724617,0.008317094,-0.015211362,-0.020741351,2.5779188,0.053713392,5.8792515,0.1,0.6052706,0.456163,0.19073445,0.12425157,inf,inf,inf,inf,1,1,1,1,3,1,3,2,6,0,1,1,1,0
551369588,551368892,45936231,42.3585499,-71.08724959999999,4.028159,-3.2483218,5.2326593,-0.79315186,0.5521927,-0.121025085,0.03969406,0.03360767,0.02790572,-0.015242765,-2.3011417,2.5787416,-0.4724617,0.0067813834,0.015824746,-0.008415783,2.5779543,0.053713392,5.8792515,0.1,0.59351814,0.45379496,0.18654054,0.12328305,inf,inf,inf,inf,1,1,1,1,3,1,3,2,6,0,1,1,1,0
551469094,551468438,45936231,42.3585499,-71.08724959999999,4.0323133,-3.2503414,5.2279077,-0.79315186,0.5521927,-0.121025085,0.039908428,0.031998545,0.028592879,-0.017353963,-2.3011417,2.5787416,-0.4724617,0.0028548662,-0.015645647,0.01012233,2.5779512,0.053713392,5.8792515,0.1,0.6048909,0.45487902,0.19129659,0.12414169,inf,inf,inf,inf,1,1,1,1,3,1,3,2,6,0,1,1,1,0
551578749,551577939,45936231,42.3585499,-71.08724959999999,4.036872,-3.254417,5.2223144,-0.79315186,0.5521927,-0.121025085,0.039643086,0.029927215,0.026059782,-0.022883026,-2.3011417,2.5787416,-0.4724617,0.0071041714,-0.0014217094,0.013010064,2.5779066,0.053713392,5.8792515,0.1,0.5918859,0.4523919,0.18550779,0.12284311,inf,inf,inf,inf,1,1,1,1,3,1,3,2,6,0,1,1,1,0
551668184,551667531,45936231,42.3585499,-71.08724959999999,4.0404825,-3.2566378,5.217708,-0.79315186,0.5521927,-0.121025085,0.039483976,0.028095776,0.023575477,-0.027413225,-2.3011417,2.5787416,-0.4724617,0.008534835,-0.012771169,-0.049467333,2.577879,0.053713392,5.8792515,0.1,0.6019801,0.4564468,0.18978569,0.1240572,inf,inf,inf,inf,1,1,1,1,3,1,3,2,6,0,1,1,1,0
551777595,551777032,45936231,42.3585499,-71.08724959999999,4.04571,-3.2598166,5.2142987,-0.79315186,0.5521927,-0.121025085,0.038774494,0.02612083,0.021142675,-0.029469648,-2.3011417,2.5787416,-0.4724617,0.001931487,-0.0046248264,0.036027223,2.5778756,0.053713392,5.8792515,0.1,0.5896804,0.45417428,0.18455729,0.122880235,inf,inf,inf,inf,1,1,1,1,3,1,3,2,6,0,1,1,1,0
551867468,551866623,45936231,42.3585499,-71.08724959999999,4.050027,-3.2617738,5.2125835,-0.79315186,0.5521927,-0.121025085,0.037889253,0.02581874,0.025199177,-0.024368921,-2.3011417,2.5787416,-0.4724617,-0.038675964,-0.034208313,-0.04202498,2.5778723,0.053713392,5.8792515,0.1,0.5996591,0.4543895,0.18883215,0.12356915,inf,inf,inf,inf,1,1,1,1,3,1,3,2,6,0,1,1,1,0
551976687,551976124,45936231,42.3585499,-71.08724959999999,4.059746,-3.265003,5.210635,-0.79315186,0.5521927,-0.121025085,0.037729565,0.025662431,0.02739812,-0.021116829,-2.3011417,2.5787416,-0.4724617,-0.031668723,0.0009945006,0.059301116,2.5778282,0.053713392,5.8792515,0.1,0.5889298,0.45272517,0.18488054,0.12271858,inf,inf,inf,inf,1,1,1,1,3,1,3,2,6,0,1,1,1,0
552076260,552075671,45936231,42.3585499,-71.08724959999999,4.068537,-3.2669141,5.208793,-0.79315186,0.5521927,-0.121025085,0.038545255,0.024791047,0.026898647,-0.021109026,-2.3011417,2.5787416,-0.4724617,0.0054968735,0.008738208,-0.054219082,2.5778046,0.053713392,5.8792515,0.1,0.6000437,0.45382103,0.1896325,0.12360518,inf,inf,inf,inf,1,1,1,1,3,1,3,2,6,0,1,1,1,0
552175836,552175217,45936231,42.3585499,-71.08724959999999,4.080771,-3.2708871,5.2050633,-0.79315186,0.5521927,-0.121025085,0.041403092,0.022944039,0.021066552,-0.027927466,-2.3011417,2.5787416,-0.4724617,0.0024704784,0.0030459426,-0.038408674,2.5777414,0.053713392,5.8792515,0.1,0.58881116,0.45158562,0.18573229,0.122710206,inf,inf,inf,inf,1,1,1,1,3,1,3,2,6,0,1,1,1,0
552275392,552274763,45936231,42.3585499,-71.08724959999999,4.0919867,-3.2737498,5.200826,-0.79315186,0.5521927,-0.121025085,0.043490846,0.022398021,0.018677963,-0.03123177,-2.3011417,2.5787416,-0.4724617,-0.0017586795,0.015875366,0.032611813,2.5776787,0.053713392,5.8792515,0.1,0.5999831,0.4565321,0.19053887,0.12413388,inf,inf,inf,inf,1,1,1,1,3,1,3,2,6,0,1,1,1,0
552374872,552374309,45936231,42.3585499,-71.08724959999999,4.0958915,-3.2741218,5.197369,-0.79315186,0.5521927,-0.121025085,0.041841578,0.024158332,0.020556994,-0.029408228,-2.3011417,2.5787416,-0.4724617,-0.0054590744,0.02330802,0.051063113,2.5776298,0.053713392,5.8792515,0.1,0.58815956,0.45404914,0.18611434,0.12311423,inf,inf,inf,inf,1,1,1,1,3,1,3,2,6,0,1,1,1,0
552474643,552473856,45936231,42.3585499,-71.08724959999999,4.0974555,-3.2730505,5.1929455,-0.79315186,0.5521927,-0.121025085,0.03859635,0.024731316,0.021187777,-0.029907577,-2.3011417,2.5787416,-0.4724617,-0.05618932,0.020073347,0.07179496,2.5776408,0.053713392,5.8792515,0.1,0.59934396,0.45518887,0.19090298,0.124014,inf,inf,inf,inf,1,1,1,1,3,1,3,2,6,0,1,1,1,0
552574073,552573402,45936231,42.3585499,-71.08724959999999,4.102204,-3.2748857,5.189822,-0.79315186,0.5521927,-0.121025085,0.038013842,0.024640355,0.023612233,-0.027431695,-2.3011417,2.5787416,-0.4724617,0.031359453,-0.016345486,-0.01813956,2.577672,0.053713392,5.8792515,0.1,0.5857788,0.45195895,0.18488319,0.12259328,inf,inf,inf,inf,1,1,1,1,3,1,3,2,6,0,1,1,1,0
552673577,552672948,45936231,42.3585499,-71.08724959999999,4.1076674,-3.2767575,5.186696,-0.79315186,0.5521927,-0.121025085,0.038614433,0.022908749,0.024775757,-0.026476197,-2.3011417,2.5787416,-0.4724617,0.0015434016,0.00087616715,-0.018213661,2.577732,0.053713392,5.8792515,0.1,0.5968216,0.45307982,0.18965404,0.12349688,inf,inf,inf,inf,1,1,1,1,3,1,3,2,6,0,1,1,1,0
552773208,552772494,45936231,42.3585499,-71.08724959999999,4.106202,-3.2848542,5.1856995,-0.79315186,0.5521927,-0.121025085,0.03561087,0.019443376,0.020104447,-0.02897019,-2.3011417,2.5787416,-0.4724617,0.0073953145,-3.8988477e-05,-0.016104385,2.5777922,0.053713392,5.8792515,0.1,0.5801581,0.44838202,0.18079156,0.12129232,inf,inf,inf,inf,1,1,1,1,3,1,3,2,6,0,1,1,1,0
552872732,552872041,45936231,42.3585499,-71.08724959999999,4.1043015,-3.2918613,5.1843753,-0.79315186,0.5521927,-0.121025085,0.032751095,0.016331809,0.01920899,-0.028075358,-2.3011417,2.5787416,-0.4724617,0.0036284463,0.0036836234,0.051665816,2.5778215,0.053713392,5.8792515,0.1,0.5907767,0.44949135,0.18552825,0.12221851,inf,inf,inf,inf,1,1,1,1,3,1,3,2,6,0,1,1,1,0
552972226,552971587,45936231,42.3585499,-71.08724959999999,4.1067843,-3.2986465,5.1851645,-0.79315186,0.5521927,-0.121025085,0.030984322,0.014834748,0.024319433,-0.019372728,-2.3011417,2.5787416,-0.4724617,-0.0057797777,0.0061252746,0.07077714,2.577867,0.053713392,5.8792515,0.10857868,0.5755908,0.44897476,0.17789242,0.12076544,inf,inf,inf,inf,1,1,1,1,3,1,3,2,6,0,1,1,1,0
553071879,553071133,45936231,42.3585499,-71.08724959999999,4.1112022,-3.3042684,5.1869316,-0.79315186,0.5521927,-0.121025085,0.029756028,0.012461291,0.02726362,-0.012912101,-2.3011417,2.5787416,-0.4724617,-0.013926183,-0.014189118,-0.012271311,2.5778306,0.053713392,5.8792515,0.10323763,0.5858953,0.45011777,0.18254757,0.121722974,inf,inf,inf,inf,1,1,1,1,3,1,3,2,6,0,1,1,1,0
553171241,553170680,45936231,42.3585499,-71.08724959999999,4.117037,-3.3073854,5.1878324,-0.79315186,0.5521927,-0.121025085,0.030208375,0.012433908,0.029556386,-0.008437977,-2.3011417,2.5787416,-0.4724617,-0.006905138,-0.00044013918,0.050672755,2.577777,0.053713392,5.8792515,0.101448536,0.57394886,0.44726038,0.1778528,0.12052107,inf,inf,inf,inf,1,1,1,1,3,1,3,2,6,0,1,1,1,0
553270788,553270226,45936231,42.3585499,-71.08724959999999,4.122884,-3.3087,5.1892266,-0.79315186,0.5521927,-0.121025085,0.03134712,0.013530419,0.02970189,-0.006287672,-2.3011417,2.5787416,-0.4724617,0.011977145,0.013574463,-0.07629362,2.5777338,0.053713392,5.8792515,0.101418495,0.58421993,0.4483932,0.18252985,0.121480264,inf,inf,inf,inf,1,1,1,1,3,1,3,2,6,0,1,1,1,0
553370468,553369772,45936231,42.3585499,-71.08724959999999,4.131865,-3.316596,5.1919317,-0.79315186,0.5521927,-0.121025085,0.03450074,0.010635325,0.023934193,-0.00850303,-2.3011417,2.5787416,-0.4724617,0.007084785,-0.00545936,-0.062617004,2.5776882,0.053713392,5.8792515,0.109401226,0.57015187,0.44450393,0.17579435,0.11971108,inf,inf,inf,inf,1,1,1,1,3,1,3,2,6,0,1,1,1,0
553469952,553469318,45936231,42.3585499,-71.08724959999999,4.1409936,-3.3248742,5.19441,-0.79315186,0.5521927,-0.121025085,0.037166163,0.00676083,0.022376051,-0.006796326,-2.3011417,2.5787416,-0.4724617,-0.010808958,-0.04146827,-0.00046744818,2.5776978,0.053713392,5.8792515,0.10367346,0.58019525,0.44561914,0.18047914,0.12068151,inf,inf,inf,inf,1,1,1,1,3,1,3,2,6,0,1,1,1,0
553569450,553568865,45936231,42.3585499,-71.08724959999999,4.1485763,-3.3360167,5.198959,-0.79315186,0.5521927,-0.121025085,0.03958799,0.0030192824,0.028484495,0.0041231313,-2.3011417,2.5787416,-0.4724617,0.010100055,-0.020978697,0.020465579,2.5776994,0.053713392,5.8792515,0.11194563,0.56463295,0.4444336,0.17219605,0.118896395,inf,inf,inf,inf,1,1,1,1,3,1,3,2,6,0,1,1,1,0
553669025,553668411,45936231,42.3585499,-71.08724959999999,4.155212,-3.3460886,5.2037125,-0.79315186,0.5521927,-0.121025085,0.04097051,-0.0016008711,0.03215913,0.011744968,-2.3011417,2.5787416,-0.4724617,-0.005519507,0.028195133,0.06266563,2.5776732,0.053713392,5.8792515,0.10786295,0.5742967,0.44557887,0.17678192,0.1199032,inf,inf,inf,inf,1,1,1,1,3,1,3,2,6,0,1,1,1,0
553768572,553767957,45936231,42.3585499,-71.08724959999999,4.1615095,-3.3585424,5.205868,-0.79315186,0.5521927,-0.121025085,0.04153599,-0.006466651,0.03447888,0.014717637,-2.3011417,2.5787416,-0.4724617,-0.010883247,-0.017206796,-0.00072792656,2.5776172,0.053713392,5.8792515,0.1,0.5654833,0.44410822,0.17497778,0.119461544,inf,inf,inf,inf,1,1,1,1,3,1,3,2,6,0,1,1,1,0
553878081,553877458,45936231,42.3585499,-71.08724959999999,4.1678715,-3.3706002,5.206018,-0.79315186,0.5521927,-0.121025085,0.041669328,-0.010274858,0.02976216,0.008676793,-2.3011417,2.5787416,-0.4724617,0.0010886891,0.0042433185,-0.012592418,2.5775533,0.053713392,5.8792515,0.1,0.5763987,0.44610038,0.18011136,0.12065342,inf,inf,inf,inf,1,1,1,1,3,1,3,2,6,0,1,1,1,0
553967732,553967050,45936231,42.3585499,-71.08724959999999,4.1717114,-3.3778868,5.2059307,-0.79315186,0.5521927,-0.121025085,0.041281108,-0.012459696,0.027480965,0.0055520395,-2.3011417,2.5787416,-0.4724617,-0.0009777752,-0.00647974,-0.04270387,2.577547,0.053713392,5.8792515,0.1,0.56457007,0.44285065,0.17582831,0.11948363,inf,inf,inf,inf,1,1,1,1,3,1,3,2,6,0,1,1,1,0
554077285,554076551,45936231,42.3585499,-71.08724959999999,4.176026,-3.384374,5.2049813,-0.79315186,0.5521927,-0.121025085,0.04145605,-0.0128911855,0.028677942,0.005155035,-2.3011417,2.5787416,-0.4724617,0.003030208,-0.0019881907,0.034135763,2.5775247,0.053713392,5.8792515,0.1,0.5755509,0.4448378,0.18100585,0.12067299,inf,inf,inf,inf,1,1,1,1,3,1,3,2,6,0,1,1,1,0
554177117,554176097,45936231,42.3585499,-71.08724959999999,4.168582,-3.3903558,5.2032375,-0.79315186,0.5521927,-0.121025085,0.035292942,-0.014633741,0.030254178,0.0043945014,-2.3011417,2.5787416,-0.4724617,0.0054447893,-0.014289285,0.04791941,2.577538,0.053713392,5.8792515,0.1,0.56315875,0.44164872,0.17558888,0.11926914,inf,inf,inf,inf,1,1,1,1,3,1,3,2,6,0,1,1,1,0
554276256,554275643,45936231,42.3585499,-71.08724959999999,4.162437,-3.394995,5.201118,-0.79315186,0.5521927,-0.121025085,0.031693403,-0.01608665,0.028593618,0.0003209681,-2.3011417,2.5787416,-0.4724617,0.009958922,-0.012140964,0.032840107,2.577628,0.053713392,5.8792515,0.1,0.57308096,0.44282228,0.18027657,0.120275006,inf,inf,inf,inf,1,1,1,1,3,1,3,2,6,0,1,1,1,0
554375759,554375190,45936231,42.3585499,-71.08724959999999,4.1588163,-3.399934,5.199587,-0.79315186,0.5521927,-0.121025085,0.02955176,-0.018282762,0.028525488,-0.0013438168,-2.3011417,2.5787416,-0.4724617,0.0024624562,-0.011206388,0.018235493,2.5777261,0.053713392,5.8792515,0.1,0.5622134,0.44394073,0.17626807,0.1197375,inf,inf,inf,inf,1,1,1,1,3,1,3,2,6,0,1,1,1,0
554475295,554474736,45936231,42.3585499,-71.08724959999999,4.156857,-3.4040399,5.196665,-0.79315186,0.5521927,-0.121025085,0.027055928,-0.018801248,0.025952158,-0.006444454,-2.3011417,2.5787416,-0.4724617,-0.0036978852,0.0053464356,-0.041439652,2.5777838,0.053713392,5.8792515,0.1,0.57218766,0.44515163,0.18098181,0.12075336,inf,inf,inf,inf,1,1,1,1,3,1,3,2,6,0,1,1,1,0
554574894,554574282,45936231,42.3585499,-71.08724959999999,4.1535435,-3.407245,5.1943555,-0.79315186,0.5521927,-0.121025085,0.022931596,-0.017685633,0.023074206,-0.010664479,-2.3011417,2.5787416,-0.4724617,-0.044179007,0.011615223,0.05148901,2.5777874,0.053713392,5.8792515,0.1,0.56328523,0.44368485,0.17885369,0.12027766,inf,inf,inf,inf,1,1,1,1,3,1,3,2,6,0,1,1,1,0
554674423,554673829,45936231,42.3585499,-71.08724959999999,4.1508083,-3.4095764,5.191952,-0.79315186,0.5521927,-0.121025085,0.017149203,-0.015857263,0.0315645,-0.0037860393,-2.3011417,2.5787416,-0.4724617,-0.045543972,0.007273467,0.124377824,2.5777662,0.053713392,5.8792515,0.1,0.57350165,0.44489926,0.18363035,0.1212806,inf,inf,inf,inf,1,1,1,1,3,1,3,2,6,0,1,1,1,0
554773968,554773375,45936231,42.3585499,-71.08724959999999,4.147482,-3.408269,5.188191,-0.79315186,0.5521927,-0.121025085,0.014157677,-0.013491073,0.035222262,-0.0036325397,-2.3011417,2.5787416,-0.4724617,-0.0043824874,0.011651959,-0.018410519,2.5777369,0.053713392,5.8792515,0.1,0.5616187,0.44205523,0.1784597,0.12002847,inf,inf,inf,inf,1,1,1,1,3,1,3,2,6,0,1,1,1,0
554873646,554872921,45936231,42.3585499,-71.08724959999999,4.145011,-3.4064364,5.184353,-0.79315186,0.5521927,-0.121025085,0.011815006,-0.0114298435,0.033665426,-0.008347883,-2.3011417,2.5787416,-0.4724617,-0.012342621,-0.017980326,0.021763038,2.5776918,0.053713392,5.8792515,0.1,0.5717999,0.44327202,0.18319927,0.12103368,inf,inf,inf,inf,1,1,1,1,3,1,3,2,6,0,1,1,1,0
554973094,554972468,45936231,42.3585499,-71.08724959999999,4.1243844,-3.3855555,5.1790934,-0.79315186,0.5521927,-0.121025085,0.0026700268,0.00054133433,0.032179,-0.013908769,-2.3011417,2.5787416,-0.4724617,0.02321403,-0.004021032,-0.011847461,2.5776227,0.053713392,5.8792515,0.1,0.56205124,0.44504324,0.18015468,0.12082281,inf,inf,inf,inf,1,1,1,1,3,1,3,2,6,0,1,1,1,0
555072654,555072014,45936231,42.3585499,-71.08724959999999,4.104532,-3.364673,5.173677,-0.79315186,0.5521927,-0.121025085,-0.005446819,0.01078017,0.028236113,-0.021337196,-2.3011417,2.5787416,-0.4724617,0.013140935,0.01675249,-0.028589386,2.577539,0.053713392,5.8792515,0.1,0.57240194,0.44631517,0.18494643,0.121834226,inf,inf,inf,inf,1,1,1,1,3,1,3,2,6,0,1,1,1,0
555172169,555171560,45936231,42.3585499,-71.08724959999999,4.0960035,-3.352953,5.171518,-0.79315186,0.5521927,-0.121025085,-0.0079722265,0.015639868,0.026111506,-0.022944313,-2.3011417,2.5787416,-0.4724617,0.0046155285,0.0034545048,0.018182956,2.5774736,0.053713392,5.8792515,0.1,0.5603547,0.4434777,0.17964628,0.12056779,inf,inf,inf,inf,1,1,1,1,3,1,3,2,6,0,1,1,1,0
555271928,555271112,45936231,42.3585499,-71.08724959999999,4.0922065,-3.3453424,5.1702247,-0.79315186,0.5521927,-0.121025085,-0.008140161,0.017542362,0.027328053,-0.020558,-2.3011417,2.5787416,-0.4724617,-0.00467873,-0.01933221,-0.0057824436,2.5773916,0.053713392,5.8792515,0.1,0.5706648,0.4447495,0.18443601,0.12158001,inf,inf,inf,inf,1,1,1,1,3,1,3,2,6,0,1,1,1,0
555371264,555370653,45936231,42.3585499,-71.08724959999999,4.086489,-3.343193,5.1666956,-0.79315186,0.5521927,-0.121025085,-0.009235801,0.017651476,0.024548395,-0.024403144,-2.3011417,2.5787416,-0.4724617,-0.03464022,-0.012479228,0.04599726,2.577281,0.053713392,5.8792515,0.1,0.5576836,0.4414124,0.17816181,0.120035276,inf,inf,inf,inf,1,1,1,1,3,1,3,2,6,0,1,1,1,0
555470877,555470199,45936231,42.3585499,-71.08724959999999,4.081555,-3.3420062,5.1633134,-0.79315186,0.5521927,-0.121025085,-0.011673623,0.018117366,0.027935686,-0.021942014,-2.3011417,2.5787416,-0.4724617,8.4735446e-05,0.024512691,-0.011929247,2.5771759,0.053713392,5.8792515,0.1,0.56785905,0.4426662,0.18292373,0.12104941,inf,inf,inf,inf,1,1,1,1,3,1,3,2,6,0,1,1,1,0
555570359,555569746,45936231,42.3585499,-71.08724959999999,4.0734167,-3.3402705,5.1585402,-0.79315186,0.5521927,-0.121025085,-0.014841382,0.01896834,0.02747465,-0.02470465,-2.3011417,2.5787416,-0.4724617,-0.006381597,0.03061372,0.03743967,2.5771277,0.053713392,5.8792515,0.1,0.5565134,0.44360924,0.17821954,0.12038116,inf,inf,inf,inf,1,1,1,1,3,1,3,2,6,0,1,1,1,0
555669905,555669292,45936231,42.3585499,-71.08724959999999,4.0660844,-3.3383477,5.155307,-0.79315186,0.5521927,-0.121025085,-0.018910151,0.019797785,0.027987018,-0.024685316,-2.3011417,2.5787416,-0.4724617,-0.031658687,0.041126706,0.034767497,2.577118,0.053713392,5.8792515,0.1,0.5667027,0.44489697,0.18297145,0.121404864,inf,inf,inf,inf,1,1,1,1,3,1,3,2,6,0,1,1,1,0
555769512,555768838,45936231,42.3585499,-71.08724959999999,4.0600076,-3.337523,5.151398,-0.79315186,0.5521927,-0.121025085,-0.022566644,0.018839017,0.028199177,-0.025635552,-2.3011417,2.5787416,-0.4724617,-0.0091492,0.0027855807,0.019067878,2.5771928,0.053713392,5.8792515,0.1,0.5493368,0.43920803,0.17219208,0.11854476,inf,inf,inf,inf,1,1,1,1,3,1,3,2,6,0,1,1,1,0
555869044,555868385,45936231,42.3585499,-71.08724959999999,4.054965,-3.3368342,5.1468096,-0.79315186,0.5521927,-0.121025085,-0.025193311,0.018782238,0.026272746,-0.02918126,-2.3011417,2.5787416,-0.4724617,-0.016084792,0.0047942465,-0.011104348,2.5772154,0.053713392,5.8792515,0.1,0.55895495,0.44047913,0.17683181,0.11959806,inf,inf,inf,inf,1,1,1,1,3,1,3,2,6,0,1,1,1,0
555968502,555967931,45936231,42.3585499,-71.08724959999999,4.0498986,-3.3301766,5.1433845,-0.79315186,0.5521927,-0.121025085,-0.02637637,0.02134517,0.02264807,-0.03273797,-2.3011417,2.5787416,-0.4724617,-0.022361813,-0.0137644205,-0.049605805,2.577217,0.053713392,5.8792515,0.1,0.54948467,0.43863568,0.17398342,0.118892744,inf,inf,inf,inf,1,1,1,1,3,1,3,2,6,0,1,1,1,0
556068112,556067477,45936231,42.3585499,-71.08724959999999,4.0453596,-3.3222268,5.1399155,-0.79315186,0.5521927,-0.121025085,-0.027194168,0.02532985,0.016845064,-0.038146906,-2.3011417,2.5787416,-0.4724617,-0.013046832,-0.009533933,-0.045219585,2.5772712,0.053713392,5.8792515,0.1,0.5592702,0.4399084,0.1786811,0.119936205,inf,inf,inf,inf,1,1,1,1,3,1,3,2,6,0,1,1,1,0
556177638,556176978,45936231,42.3585499,-71.08724959999999,4.0424924,-3.3185153,5.1342044,-0.79315186,0.5521927,-0.121025085,-0.027994325,0.02706297,0.015334597,-0.0406533,-2.3011417,2.5787416,-0.4724617,-0.076628424,-0.026126975,0.082999416,2.5772586,0.053713392,5.8792515,0.1,0.5516059,0.43939555,0.1771049,0.119686805,inf,inf,inf,inf,1,1,1,1,3,1,3,2,6,0,1,1,1,0
556277284,556276525,45936231,42.3585499,-71.08724959999999,4.0407863,-3.3177125,5.12921,-0.79315186,0.5521927,-0.121025085,-0.030752452,0.02692289,0.020464784,-0.03640829,-2.3011417,2.5787416,-0.4724617,-0.030740228,0.007665636,0.015570615,2.577272,0.053713392,5.8792515,0.1,0.5616976,0.4406828,0.18184981,0.120715804,inf,inf,inf,inf,1,1,1,1,3,1,3,2,6,0,1,1,1,0
556376940,556376071,45936231,42.3585499,-71.08724959999999,4.041735,-3.319266,5.1259303,-0.79315186,0.5521927,-0.121025085,-0.028382126,0.026043242,0.015290348,-0.04076046,-2.3011417,2.5787416,-0.4724617,-0.0022706226,0.016649054,-0.05031239,2.5772693,0.053713392,5.8792515,0.10000467,0.5507218,0.44176066,0.1773368,0.120105796,inf,inf,inf,inf,1,1,1,1,3,1,3,2,6,0,1,1,1,0
556476181,556475619,45936231,42.3585499,-71.08724959999999,4.0436716,-3.321483,5.12354,-0.79315186,0.5521927,-0.121025085,-0.027348962,0.024135567,0.016799098,-0.03736069,-2.3011417,2.5787416,-0.4724617,-0.021344429,-0.014746256,0.018897625,2.577234,0.053713392,5.8792515,0.10124874,0.56085026,0.4430956,0.18210542,0.121145695,inf,inf,inf,inf,1,1,1,1,3,1,3,2,6,0,1,1,1,0
556575726,556575164,45936231,42.3585499,-71.08724959999999,4.0494413,-3.320719,5.1216836,-0.79315186,0.5521927,-0.121025085,-0.02476451,0.025212178,0.016581524,-0.035550937,-2.3011417,2.5787416,-0.4724617,0.006771262,0.0010431232,-0.022631943,2.577198,0.053713392,5.8792515,0.10143614,0.5491677,0.44027334,0.17682558,0.11985038,inf,inf,inf,inf,1,1,1,1,3,1,3,2,6,0,1,1,1,0
556675279,556674710,45936231,42.3585499,-71.08724959999999,4.0552754,-3.3186953,5.1189513,-0.79315186,0.5521927,-0.121025085,-0.020855794,0.025884338,0.013104347,-0.03786202,-2.3011417,2.5787416,-0.4724617,0.010103261,0.014308343,-0.0061530634,2.577125,0.053713392,5.8792515,0.1,0.55926055,0.44159317,0.18156447,0.12088675,inf,inf,inf,inf,1,1,1,1,3,1,3,2,6,0,1,1,1,0
556774831,556774256,45936231,42.3585499,-71.08724959999999,4.0622644,-3.316618,5.1168056,-0.79315186,0.5521927,-0.121025085,-0.015970318,0.026081465,0.0123468535,-0.036757667,-2.3011417,2.5787416,-0.4724617,0.019755248,0.005385163,0.03383786,2.5770361,0.053713392,5.8792515,0.103310585,0.5485974,0.4392373,0.17724982,0.119845636,inf,inf,inf,inf,1,1,1,1,3,1,3,2,6,0,1,1,1,0
556874420,556873803,45936231,42.3585499,-71.08724959999999,4.0685277,-3.3143563,5.115084,-0.79315186,0.5521927,-0.121025085,-0.011063734,0.026257446,0.013858978,-0.033291623,-2.3011417,2.5787416,-0.4724617,0.016807415,-0.025157057,0.018701715,2.5768948,0.053713392,5.8792515,0.10161638,0.5587457,0.44054687,0.18199873,0.12087435,inf,inf,inf,inf,1,1,1,1,3,1,3,2,6,0,1,1,1,0
556973948,556973349,45936231,42.3585499,-71.08724959999999,4.0760837,-3.3172016,5.111465,-0.79315186,0.5521927,-0.121025085,-0.006865113,0.021960521,0.012022465,-0.03526843,-2.3011417,2.5787416,-0.4724617,0.013558222,-0.014863065,-0.011283291,2.5767775,0.053713392,5.8792515,0.1,0.5512137,0.44321242,0.18068558,0.12113284,inf,inf,inf,inf,1,1,1,1,3,1,3,2,6,0,1,1,1,0
557073458,557072896,45936231,42.3585499,-71.08724959999999,4.082843,-3.320827,5.1064773,-0.79315186,0.5521927,-0.121025085,-0.0033043528,0.019767597,0.013122834,-0.03547583,-2.3011417,2.5787416,-0.4724617,0.026229218,-0.008444124,0.11107664,2.5766668,0.053713392,5.8792515,0.1,0.5617152,0.44458508,0.18549888,0.12215824,inf,inf,inf,inf,1,1,1,1,3,1,3,2,6,0,1,1,1,0
557173019,557172442,45936231,42.3585499,-71.08724959999999,4.0876307,-3.3195517,5.1017995,-0.79315186,0.5521927,-0.121025085,-0.0017414516,0.020704228,0.0074973963,-0.041791882,-2.3011417,2.5787416,-0.4724617,-0.023788933,-0.0070574693,0.018054962,2.576621,0.053713392,5.8792515,0.1,0.554723,0.44401175,0.18457834,0.12208079,inf,inf,inf,inf,1,1,1,1,3,1,3,2,6,0,1,1,1,0
557272549,557271988,45936231,42.3585499,-71.08724959999999,4.0909295,-3.316492,5.097729,-0.79315186,0.5521927,-0.121025085,-0.0024114794,0.022241294,0.004336971,-0.04454769,-2.3011417,2.5787416,-0.4724617,-0.04082023,-0.026157942,-0.0074464735,2.5766082,0.053713392,5.8792515,0.101392746,0.5656362,0.44540033,0.18947536,0.12308428,inf,inf,inf,inf,1,1,1,1,3,1,3,2,6,0,1,1,1,0
557372131,557371535,45936231,42.3585499,-71.08724959999999,4.094123,-3.316591,5.092669,-0.79315186,0.5521927,-0.121025085,-0.0041247644,0.022256115,0.0027047123,-0.04667487,-2.3011417,2.5787416,-0.4724617,-0.026214553,-0.00942372,-0.05382096,2.5766082,0.053713392,5.8792515,0.1,0.5558707,0.44366595,0.18581375,0.12233795,inf,inf,inf,inf,1,1,1,1,3,1,3,2,6,0,1,1,1,0
557471842,557471081,45936231,42.3585499,-71.08724959999999,4.0964856,-3.3172112,5.0873694,-0.79315186,0.5521927,-0.121025085,-0.0050597126,0.020936586,0.0016966095,-0.048030715,-2.3011417,2.5787416,-0.4724617,-0.005871357,-0.0049707424,0.093275584,2.5765882,0.053713392,5.8792515,0.1,0.56694174,0.44504085,0.19070634,0.123325184,inf,inf,inf,inf,1,1,1,1,3,1,3,2,6,0,1,1,1,0
557571387,557570627,45936231,42.3585499,-71.08724959999999,4.0993633,-3.3184628,5.0823035,-0.79315186,0.5521927,-0.121025085,-0.00503604,0.020663844,0.00501534,-0.04497911,-2.3011417,2.5787416,-0.4724617,-0.012345477,-0.004615965,0.097240396,2.57657,0.053713392,5.8792515,0.1,0.55649155,0.44302124,0.18632337,0.12241095,inf,inf,inf,inf,1,1,1,1,3,1,3,2,6,0,1,1,1,0
557670752,557670174,45936231,42.3585499,-71.08724959999999,4.1017838,-3.3193123,5.0775228,-0.79315186,0.5521927,-0.121025085,-0.003332283,0.019656844,0.003709285,-0.04635367,-2.3011417,2.5787416,-0.4724617,0.0027935712,0.030526033,0.030753156,2.5765638,0.053713392,5.8792515,0.1,0.56765276,0.44803232,0.19119297,0.123892754,inf,inf,inf,inf,1,1,1,1,3,1,3,2,6,0,1,1,1,0
557770298,557769720,45936231,42.3585499,-71.08724959999999,4.1065364,-3.3219905,5.074224,-0.79315186,0.5521927,-0.121025085,-0.002914762,0.019038025,0.0053673754,-0.043288898,-2.3011417,2.5787416,-0.4724617,-0.014414587,-0.011870427,0.0011575478,2.5765767,0.053713392,5.8792515,0.10322142,0.5602186,0.4473016,0.1896317,0.12368896,inf,inf,inf,inf,1,1,1,1,3,1,3,2,6,0,1,1,1,0
557869920,557869267,45936231,42.3585499,-71.08724959999999,4.111647,-3.325052,5.071065,-0.79315186,0.5521927,-0.121025085,-0.002210278,0.016756417,0.006401906,-0.04097349,-2.3011417,2.5787416,-0.4724617,-0.025443394,-0.040554892,-0.00077561074,2.576631,0.053713392,5.8792515,0.10340834,0.57175106,0.44872662,0.19456215,0.12465847,inf,inf,inf,inf,1,1,1,1,3,1,3,2,6,0,1,1,1,0
557969372,557968813,45936231,42.3585499,-71.08724959999999,4.115371,-3.3267562,5.067704,-0.79315186,0.5521927,-0.121025085,-0.004099563,0.0141151305,0.005208533,-0.041269366,-2.3011417,2.5787416,-0.4724617,-0.00535479,0.021411628,0.035438154,2.5766964,0.053713392,5.8792515,0.1017766,0.56321645,0.44761273,0.19192433,0.124221444,inf,inf,inf,inf,1,1,1,1,3,1,3,2,6,0,1,1,1,0
558068995,558068359,45936231,42.3585499,-71.08724959999999,4.1177235,-3.3273983,5.0649114,-0.79315186,0.5521927,-0.121025085,-0.0059234044,0.015539829,0.005752418,-0.03932694,-2.3011417,2.5787416,-0.4724617,0.0034489308,0.004835829,-0.09651362,2.5767024,0.053713392,5.8792515,0.104848385,0.57502675,0.44903585,0.1968979,0.12517099,inf,inf,inf,inf,1,1,1,1,3,1,3,2,6,0,1,1,1,0
558168625,558167906,45936231,42.3585499,-71.08724959999999,4.123113,-3.3239422,5.065209,-0.79315186,0.5521927,-0.121025085,-0.0045065586,0.018152772,0.0051885713,-0.035544336,-2.3011417,2.5787416,-0.4724617,0.007280293,0.011437453,-0.0053903405,2.5766582,0.053713392,5.8792515,0.11122751,0.5626524,0.44645932,0.1908228,0.12392276,inf,inf,inf,inf,1,1,1,1,3,1,3,2,6,0,1,1,1,0
558268017,558267452,45936231,42.3585499,-71.08724959999999,4.128445,-3.3193448,5.0661936,-0.79315186,0.5521927,-0.121025085,-0.002306354,0.019981256,0.0041701063,-0.032047305,-2.3011417,2.5787416,-0.4724617,0.021484103,-0.0070608095,-0.031742822,2.5766273,0.053713392,5.8792515,0.11175394,0.5743991,0.45157877,0.19576508,0.12538943,inf,inf,inf,inf,1,1,1,1,3,1,3,2,6,0,1,1,1,0
558377569,558376953,45936231,42.3585499,-71.08724959999999,4.135944,-3.3136466,5.0685315,-0.79315186,0.5521927,-0.121025085,0.00038703924,0.020655328,0.004478634,-0.025977572,-2.3011417,2.5787416,-0.4724617,-0.009591855,-0.0035087569,0.050447844,2.5766172,0.053713392,5.8792515,0.11518574,0.5628522,0.44972214,0.19001137,0.12426506,inf,inf,inf,inf,1,1,1,1,3,1,3,2,6,0,1,1,1,0
558477111,558476500,45936231,42.3585499,-71.08724959999999,4.1423063,-3.3085604,5.0698013,-0.79315186,0.5521927,-0.121025085,0.0017721781,0.021872984,0.009690509,-0.017320989,-2.3011417,2.5787416,-0.4724617,0.00048031818,-0.0072119227,0.070669435,2.5766065,0.053713392,5.8792515,0.10918474,0.57456404,0.45114273,0.19492428,0.1252114,inf,inf,inf,inf,1,1,1,1,3,1,3,2,6,0,1,1,1,0
558576845,558576046,45936231,42.3585499,-71.08724959999999,4.150085,-3.3025296,5.0719986,-0.79315186,0.5521927,-0.121025085,0.004803474,0.025576971,0.015147101,-0.008334435,-2.3011417,2.5787416,-0.4724617,-0.0044796267,0.013728214,0.06625544,2.576602,0.053713392,5.8792515,0.111964226,0.5626388,0.4487217,0.18944624,0.12406417,inf,inf,inf,inf,1,1,1,1,3,1,3,2,6,0,1,1,1,0
558676563,558675592,45936231,42.3585499,-71.08724959999999,4.1570716,-3.2965348,5.0740495,-0.79315186,0.5521927,-0.121025085,0.0069136703,0.02774081,0.017885102,-0.0031864557,-2.3011417,2.5787416,-0.4724617,0.009804962,-0.017745357,-0.07589616,2.5766163,0.053713392,5.8792515,0.104827404,0.57432884,0.45014226,0.19431755,0.1250074,inf,inf,inf,inf,1,1,1,1,3,1,3,2,6,0,1,1,1,0
558775748,558775139,45936231,42.3585499,-71.08724959999999,4.162095,-3.2980843,5.0741534,-0.79315186,0.5521927,-0.121025085,0.007623008,0.025060952,0.011014808,-0.009604262,-2.3011417,2.5787416,-0.4724617,0.015107736,-0.039540656,-0.07560649,2.5765867,0.053713392,5.8792515,0.102779865,0.56370527,0.44826025,0.19004683,0.12414918,inf,inf,inf,inf,1,1,1,1,3,1,3,2,6,0,1,1,1,0
558875245,558874685,45936231,42.3585499,-71.08724959999999,4.1657615,-3.3014097,5.0729256,-0.79315186,0.5521927,-0.121025085,0.009086894,0.021372719,0.006249815,-0.0145884175,-2.3011417,2.5787416,-0.4724617,0.017165666,-0.015920978,0.01225258,2.5765405,0.053713392,5.8792515,0.10070419,0.5754894,0.44965526,0.19497325,0.1250767,inf,inf,inf,inf,1,1,1,1,3,1,3,2,6,0,1,1,1,0
558974858,558974232,45936231,42.3585499,-71.08724959999999,4.1685047,-3.3087468,5.072561,-0.79315186,0.5521927,-0.121025085,0.011077703,0.01773883,0.0061528753,-0.013775927,-2.3011417,2.5787416,-0.4724617,0.0030123617,-0.006627176,-0.004083321,2.576523,0.053713392,5.8792515,0.10740852,0.5640332,0.4511835,0.19002688,0.12457194,inf,inf,inf,inf,1,1,1,1,3,1,3,2,6,0,1,1,1,0
559074429,559073778,45936231,42.3585499,-71.08724959999999,4.170662,-3.3159633,5.073133,-0.79315186,0.5521927,-0.121025085,0.012106071,0.013315394,0.0074542128,-0.010816902,-2.3011417,2.5787416,-0.4724617,0.0023144432,-0.008942317,-0.0018267262,2.576542,0.053713392,5.8792515,0.10662365,0.5758416,0.45258442,0.19491652,0.12549774,inf,inf,inf,inf,1,1,1,1,3,1,3,2,6,0,1,1,1,0
559173920,559173324,45936231,42.3585499,-71.08724959999999,4.1730967,-3.3278165,5.0708065,-0.79315186,0.5521927,-0.121025085,0.012692729,0.0061766775,0.00789427,-0.011859236,-2.3011417,2.5787416,-0.4724617,0.026031971,-0.020898966,-0.07379437,2.5766182,0.053713392,5.8792515,0.1,0.5628884,0.44976458,0.18868312,0.12413954,inf,inf,inf,inf,1,1,1,1,3,1,3,2,6,0,1,1,1,0
559273517,559272871,45936231,42.3585499,-71.08724959999999,4.1752133,-3.339261,5.065911,-0.79315186,0.5521927,-0.121025085,0.010892618,0.00085540855,0.006024771,-0.017426042,-2.3011417,2.5787416,-0.4724617,-0.029359363,0.01177427,0.030472597,2.576659,0.053713392,5.8792515,0.1,0.57458746,0.4511613,0.19353665,0.12506707,inf,inf,inf,inf,1,1,1,1,3,1,3,2,6,0,1,1,1,0
559373000,559372417,45936231,42.3585499,-71.08724959999999,4.177734,-3.345609,5.061668,-0.79315186,0.5521927,-0.121025085,0.009984634,-0.002194156,0.007982008,-0.018091153,-2.3011417,2.5787416,-0.4724617,-0.0039500855,0.019575344,0.010322196,2.5766726,0.053713392,5.8792515,0.1,0.56184256,0.44836646,0.18752165,0.123728506,inf,inf,inf,inf,1,1,1,1,3,1,3,2,6,0,1,1,1,0
559472531,559471964,45936231,42.3585499,-71.08724959999999,4.17987,-3.3497863,5.0587626,-0.79315186,0.5521927,-0.121025085,0.008568132,-0.003603678,0.008926555,-0.018330175,-2.3011417,2.5787416,-0.4724617,-0.036120914,-0.036746982,-0.0052791857,2.5766425,0.053713392,5.8792515,0.10077286,0.57344556,0.4497308,0.19234298,0.12465023,inf,inf,inf,inf,1,1,1,1,3,1,3,2,6,0,1,1,1,0
559572245,559571510,45936231,42.3585499,-71.08724959999999,4.1803346,-3.350711,5.059128,-0.79315186,0.5521927,-0.121025085,0.009039914,-0.0030613556,0.008590523,-0.016551776,-2.3011417,2.5787416,-0.4724617,0.0018584502,-0.020831086,-0.047545925,2.5765727,0.053713392,5.8792515,0.10809231,0.56250083,0.44769016,0.18792744,0.12371462,inf,inf,inf,inf,1,1,1,1,3,1,3,2,6,0,1,1,1,0
559671653,559671056,45936231,42.3585499,-71.08724959999999,4.1803875,-3.3504534,5.060235,-0.79315186,0.5521927,-0.121025085,0.008762838,-0.0035882893,0.003256551,-0.018907538,-2.3011417,2.5787416,-0.4724617,-0.009881188,-0.03284266,-0.016801989,2.5765164,0.053713392,5.8792515,0.109097004,0.57416326,0.45278412,0.1927694,0.125157,inf,inf,inf,inf,1,1,1,1,3,1,3,2,6,0,1,1,1,0
559771276,559770603,45936231,42.3585499,-71.08724959999999,4.182239,-3.34784,5.062836,-0.79315186,0.5521927,-0.121025085,0.009233566,-0.0030389733,0.004684484,-0.013186938,-2.3011417,2.5787416,-0.4724617,-0.057006165,-0.015023339,0.1912282,2.5764456,0.053713392,5.8792515,0.11321688,0.5629568,0.4506007,0.18814778,0.12415493,inf,inf,inf,inf,1,1,1,1,3,1,3,2,6,0,1,1,1,0
559870761,559870149,45936231,42.3585499,-71.08724959999999,4.184546,-3.3448584,5.06464,-0.79315186,0.5521927,-0.121025085,0.012149744,-0.0019364065,0.0035148456,-0.011396099,-2.3011417,2.5787416,-0.4724617,-0.002584828,-0.01964331,-0.06533182,2.5764089,0.053713392,5.8792515,0.10937643,0.5746564,0.4519732,0.19298746,0.1250714,inf,inf,inf,inf,1,1,1,1,3,1,3,2,6,0,1,1,1,0
559970255,559969696,45936231,42.3585499,-71.08724959999999,4.1852145,-3.3385973,5.068629,-0.79315186,0.5521927,-0.121025085,0.010747112,0.0014863214,0.00629193,-0.0037811452,-2.3011417,2.5787416,-0.4724617,-0.007079697,0.016428089,0.01677995,2.5763686,0.053713392,5.8792515,0.11689806,0.5618719,0.44912547,0.18697073,0.12371347,inf,inf,inf,inf,1,1,1,1,3,1,3,2,6,0,1,1,1,0
560069837,560069242,45936231,42.3585499,-71.08724959999999,4.1852856,-3.3320782,5.073474,-0.79315186,0.5521927,-0.121025085,0.009418233,0.0057020327,0.0072185188,0.0019429,-2.3011417,2.5787416,-0.4724617,-0.01854261,0.0034010583,-0.04607063,2.576314,0.053713392,5.8792515,0.113805294,0.57346684,0.45047957,0.19178441,0.12462918,inf,inf,inf,inf,1,1,1,1,3,1,3,2,6,0,1,1,1,0
560169400,560168789,45936231,42.3585499,-71.08724959999999,4.1882105,-3.330612,5.0759454,-0.79315186,0.5521927,-0.121025085,0.009921693,0.0055259885,0.005885436,0.0026060399,-2.3011417,2.5787416,-0.4724617,0.00768728,-0.012459346,-0.009152649,2.5762007,0.053713392,5.8792515,0.104653835,0.56393117,0.44897795,0.18861133,0.1239919,inf,inf,inf,inf,1,1,1,1,3,1,3,2,6,0,1,1,1,0
560268930,560268335,45936231,42.3585499,-71.08724959999999,4.1917005,-3.3308544,5.0767164,-0.79315186,0.5521927,-0.121025085,0.011304842,0.0040123435,0.009823602,0.0065814294,-2.3011417,2.5787416,-0.4724617,-0.0069326465,0.0062388335,0.058861,2.5760512,0.053713392,5.8792515,0.10417223,0.5757043,0.45409727,0.1934698,0.1254307,inf,inf,inf,inf,1,1,1,1,3,1,3,2,6,0,1,1,1,0
560368492,560367882,45936231,42.3585499,-71.08724959999999,4.1940165,-3.3327575,5.0770006,-0.79315186,0.5521927,-0.121025085,0.012389098,0.0021479202,0.015405944,0.011241233,-2.3011417,2.5787416,-0.4724617,0.0040980037,0.0005430988,0.058622483,2.5758924,0.053713392,5.8792515,0.10113001,0.5648369,0.45204863,0.18912491,0.12450881,inf,inf,inf,inf,1,1,1,1,3,1,3,2,6,0,1,1,1,0
560477958,560477383,45936231,42.3585499,-71.08724959999999,4.1959968,-3.335031,5.078028,-0.79315186,0.5521927,-0.121025085,0.012389382,0.0002213537,0.016248632,0.011473202,-2.3011417,2.5787416,-0.4724617,0.00016255694,0.0074697444,-0.017312665,2.575809,0.053713392,5.8792515,0.10161543,0.5778895,0.45431098,0.19444622,0.12561083,inf,inf,inf,inf,1,1,1,1,3,1,3,2,6,0,1,1,1,0
560567541,560566974,45936231,42.3585499,-71.08724959999999,4.199433,-3.334823,5.0790825,-0.79315186,0.5521927,-0.121025085,0.013989442,-0.0012283414,0.016544992,0.011577564,-2.3011417,2.5787416,-0.4724617,0.019767052,-0.018538568,0.019245828,2.5757551,0.053713392,5.8792515,0.100755215,0.56593704,0.45140475,0.18973303,0.12451582,inf,inf,inf,inf,1,1,1,1,3,1,3,2,6,0,1,1,1,0
560677033,560676475,45936231,42.3585499,-71.08724959999999,4.2034097,-3.3345523,5.0798283,-0.79315186,0.5521927,-0.121025085,0.01754959,-0.0021152108,0.010537204,0.0050268793,-2.3011417,2.5787416,-0.4724617,0.007497846,-0.003916471,-0.12530397,2.5757027,0.053713392,5.8792515,0.10083771,0.57907486,0.4536385,0.19508922,0.1256051,inf,inf,inf,inf,1,1,1,1,3,1,3,2,6,0,1,1,1,0
560776610,560776022,45936231,42.3585499,-71.08724959999999,4.211762,-3.3325076,5.079474,-0.79315186,0.5521927,-0.121025085,0.021935266,-0.0017744271,0.0036185621,-0.0025157332,-2.3011417,2.5787416,-0.4724617,0.0070559196,-0.0032484771,0.010542255,2.5756168,0.053713392,5.8792515,0.10004473,0.56793827,0.4515398,0.19057976,0.124652155,inf,inf,inf,inf,1,1,1,1,3,1,3,2,6,0,1,1,1,0
560876224,560875568,45936231,42.3585499,-71.08724959999999,4.2198567,-3.330576,5.079623,-0.79315186,0.5521927,-0.121025085,0.02587016,-0.0010930498,0.0081767645,0.0020598709,-2.3011417,2.5787416,-0.4724617,0.025269914,0.0040973406,0.082028605,2.5755484,0.053713392,5.8792515,0.10094643,0.5799581,0.45288593,0.19548766,0.12554105,inf,inf,inf,inf,1,1,1,1,3,1,3,2,6,0,1,1,1,0
560976169,560975115,45936231,42.3585499,-71.08724959999999,4.227331,-3.3253307,5.0811048,-0.79315186,0.5521927,-0.121025085,0.02983784,0.0012116532,0.0108745145,0.005749348,-2.3011417,2.5787416,-0.4724617,-0.014976817,0.005751304,0.053195443,2.5755615,0.053713392,5.8792515,0.10414696,0.56880367,0.45078328,0.19091225,0.124586694,inf,inf,inf,inf,1,1,1,1,3,1,3,2,6,0,1,1,1,0
561075256,561074661,45936231,42.3585499,-71.08724959999999,4.2338443,-3.320429,5.083098,-0.79315186,0.5521927,-0.121025085,0.0310911,0.0028577596,0.011514811,0.007539676,-2.3011417,2.5787416,-0.4724617,0.0002644305,-0.0048356694,0.0028296995,2.5755877,0.053713392,5.8792515,0.10514307,0.58086836,0.45593393,0.1957839,0.12601547,inf,inf,inf,inf,1,1,1,1,3,1,3,2,6,0,1,1,1,0
561174766,561174208,45936231,42.3585499,-71.08724959999999,4.233309,-3.3225322,5.0829315,-0.79315186,0.5521927,-0.121025085,0.030380633,-0.0009849054,0.010350626,0.0053520445,-2.3011417,2.5787416,-0.4724617,0.011528009,-0.008737033,0.03361859,2.575546,0.053713392,5.8792515,0.1,0.56995106,0.4538993,0.19144377,0.12510875,inf,inf,inf,inf,1,1,1,1,3,1,3,2,6,0,1,1,1,0
561274313,561273754,45936231,42.3585499,-71.08724959999999,4.232275,-3.3257055,5.0828586,-0.79315186,0.5521927,-0.121025085,0.029674271,-0.0044030626,0.011024216,0.005264214,-2.3011417,2.5787416,-0.4724617,-0.014446736,-0.031074272,-0.013781038,2.5754461,0.053713392,5.8792515,0.10058975,0.58208233,0.4552338,0.1963372,0.12598833,inf,inf,inf,inf,1,1,1,1,3,1,3,2,6,0,1,1,1,0
561373903,561373300,45936231,42.3585499,-71.08724959999999,4.2270803,-3.3244424,5.0832763,-0.79315186,0.5521927,-0.121025085,0.025897691,-0.00590363,0.017917609,0.011635609,-2.3011417,2.5787416,-0.4724617,0.0089190025,-0.021599362,0.08689417,2.5753107,0.053713392,5.8792515,0.1,0.5728953,0.45391706,0.19346538,0.12545605,inf,inf,inf,inf,1,1,1,1,3,1,3,2,6,0,1,1,1,0
561473450,561472847,45936231,42.3585499,-71.08724959999999,4.2227716,-3.3228734,5.083588,-0.79315186,0.5521927,-0.121025085,0.026974246,-0.005436438,0.02305758,0.015524899,-2.3011417,2.5787416,-0.4724617,0.012713718,0.013821947,0.020038491,2.5751662,0.053713392,5.8792515,0.1,0.58524466,0.4552395,0.19835757,0.12632012,inf,inf,inf,inf,1,1,1,1,3,1,3,2,6,0,1,1,1,0
561573076,561572393,45936231,42.3585499,-71.08724959999999,4.218022,-3.326293,5.084755,-0.79315186,0.5521927,-0.121025085,0.023523973,-0.007194329,0.016438702,0.008721085,-2.3011417,2.5787416,-0.4724617,-0.02739167,0.011738056,-0.050853558,2.5750632,0.053713392,5.8792515,0.1006012,0.5735956,0.45305213,0.19343512,0.12531933,inf,inf,inf,inf,1,1,1,1,3,1,3,2,6,0,1,1,1,0
561672610,561671940,45936231,42.3585499,-71.08724959999999,4.2144537,-3.330181,5.0862327,-0.79315186,0.5521927,-0.121025085,0.021957185,-0.010279077,0.009583525,0.0026704143,-2.3011417,2.5787416,-0.4724617,0.01277694,-0.02852745,-0.05182511,2.5749197,0.053713392,5.8792515,0.10242319,0.5859591,0.45435688,0.1983832,0.1261766,inf,inf,inf,inf,1,1,1,1,3,1,3,2,6,0,1,1,1,0
561772043,561771486,45936231,42.3585499,-71.08724959999999,4.2103624,-3.3279684,5.0899215,-0.79315186,0.5521927,-0.121025085,0.021116331,-0.010174063,0.009908113,0.0063422783,-2.3011417,2.5787416,-0.4724617,-0.0055373423,-0.0024734354,-0.007504108,2.5747666,0.053713392,5.8792515,0.111178875,0.5713229,0.45487383,0.19106503,0.1251275,inf,inf,inf,inf,1,1,1,1,3,1,3,2,6,0,1,1,1,0
561871643,561871033,45936231,42.3585499,-71.08724959999999,4.207051,-3.3245046,5.0942845,-0.79315186,0.5521927,-0.121025085,0.019228578,-0.010170139,0.016213074,0.015875703,-2.3011417,2.5787416,-0.4724617,-0.01675845,-0.049896445,0.054855768,2.5746155,0.053713392,5.8792515,0.106548786,0.5834493,0.45617333,0.19593972,0.12599587,inf,inf,inf,inf,1,1,1,1,3,1,3,2,6,0,1,1,1,0
561971269,561970579,45936231,42.3585499,-71.08724959999999,4.2030177,-3.3159995,5.1016316,-0.79315186,0.5521927,-0.121025085,0.017986456,-0.006219421,0.027827201,0.03235173,-2.3011417,2.5787416,-0.4724617,-0.012886209,0.007328334,0.04398529,2.574512,0.053713392,5.8792515,0.11093712,0.5693353,0.4528854,0.18901533,0.12443872,inf,inf,inf,inf,1,1,1,1,3,1,3,2,6,0,1,1,1,0
562070828,562070126,45936231,42.3585499,-71.08724959999999,4.2000356,-3.3082833,5.10767,-0.79315186,0.5521927,-0.121025085,0.016042495,-0.0028130573,0.02731161,0.03436111,-2.3011417,2.5787416,-0.4724617,-0.0032397325,-0.0026789298,-0.040849045,2.57442,0.053713392,5.8792515,0.103684425,0.58125573,0.45416412,0.19380732,0.12531227,inf,inf,inf,inf,1,1,1,1,3,1,3,2,6,0,1,1,1,0
562170248,562169672,45936231,42.3585499,-71.08724959999999,4.1948233,-3.3013716,5.110951,-0.79315186,0.5521927,-0.121025085,0.015414169,-0.0015210056,0.031432293,0.03787769,-2.3011417,2.5787416,-0.4724617,0.06501177,0.02160486,0.040141735,2.5743449,0.053713392,5.8792515,0.1,0.5649962,0.44990677,0.18507057,0.12323912,inf,inf,inf,inf,1,1,1,1,3,1,3,2,6,0,1,1,1,0
562269940,562269219,45936231,42.3585499,-71.08724959999999,4.190195,-3.2958694,5.1126957,-0.79315186,0.5521927,-0.121025085,0.01444543,-0.00043216266,0.032938335,0.03702623,-2.3011417,2.5787416,-0.4724617,0.0047837375,0.024404807,-0.040445685,2.5743127,0.053713392,5.8792515,0.1,0.5765149,0.45116094,0.18981971,0.12412833,inf,inf,inf,inf,1,1,1,1,3,1,3,2,6,0,1,1,1,0
562369331,562368765,45936231,42.3585499,-71.08724959999999,4.184745,-3.2857852,5.1133327,-0.79315186,0.5521927,-0.121025085,0.011944162,0.0039488855,0.03244121,0.03331375,-2.3011417,2.5787416,-0.4724617,-0.0026366315,0.01624382,0.05636699,2.5743172,0.053713392,5.8792515,0.1,0.56872123,0.4540542,0.18823086,0.12438974,inf,inf,inf,inf,1,1,1,1,3,1,3,2,6,0,1,1,1,0
562468894,562468312,45936231,42.3585499,-71.08724959999999,4.18014,-3.275834,5.1135283,-0.79315186,0.5521927,-0.121025085,0.010056425,0.008201573,0.028154593,0.02590296,-2.3011417,2.5787416,-0.4724617,0.010518485,0.024187952,0.025655992,2.574394,0.053713392,5.8792515,0.1,0.5805524,0.4553367,0.19305846,0.12527229,inf,inf,inf,inf,1,1,1,1,3,1,3,2,6,0,1,1,1,0
562578409,562577813,45936231,42.3585499,-71.08724959999999,4.182275,-3.26592,5.1151614,-0.79315186,0.5521927,-0.121025085,0.01136857,0.010877759,0.023324843,0.020015601,-2.3011417,2.5787416,-0.4724617,-0.011955122,-0.013394514,-0.08995807,2.5746112,0.053713392,5.8792515,0.1,0.57113093,0.45422736,0.18955146,0.124606244,inf,inf,inf,inf,1,1,1,1,3,1,3,2,6,0,1,1,1,0
562667995,562667405,45936231,42.3585499,-71.08724959999999,4.185639,-3.2594004,5.1156516,-0.79315186,0.5521927,-0.121025085,0.013723041,0.010762343,0.028211636,0.02325916,-2.3011417,2.5787416,-0.4724617,-0.007876635,-0.006556782,0.085298195,2.574943,0.053713392,5.8792515,0.1,0.58187616,0.45459425,0.19393432,0.12528187,inf,inf,inf,inf,1,1,1,1,3,1,3,2,6,0,1,1,1,0
562777563,562776906,45936231,42.3585499,-71.08724959999999,4.186743,-3.252371,5.115611,-0.79315186,0.5521927,-0.121025085,0.016260734,0.012902559,0.03388897,0.026112998,-2.3011417,2.5787416,-0.4724617,0.12838247,0.4260911,1.3728889,2.5752964,0.053713392,5.8792515,0.1,0.57022065,0.45260182,0.18851314,0.12415029,inf,inf,inf,inf,1,1,1,1,3,1,3,2,6,0,1,1,1,0
562867165,562866497,45936231,42.3585499,-71.08724959999999,4.1873646,-3.2478456,5.114126,-0.79315186,0.5521927,-0.121025085,0.017392334,0.01147233,0.025291145,0.01423005,-2.3011417,2.5787416,-0.4724617,-0.011771062,0.020564744,0.33004373,2.5756187,0.053713392,5.8792515,0.1,0.5808676,0.452973,0.19287197,0.12483222,inf,inf,inf,inf,1,1,1,1,3,1,3,2,6,0,1,1,1,0
562976584,562975999,45936231,42.3585499,-71.08724959999999,4.1850495,-3.2386458,5.1121883,-0.79315186,0.5521927,-0.121025085,0.016371567,0.014072072,0.027721783,0.0129929595,-2.3011417,2.5787416,-0.4724617,-0.018780498,-0.0073904404,0.2596714,2.5759547,0.053713392,5.8792515,0.1,0.57136565,0.45188317,0.18931027,0.12417281,inf,inf,inf,inf,1,1,1,1,3,1,3,2,6,0,1,1,1,0
563076284,563075545,45936231,42.3585499,-71.08724959999999,4.1825604,-3.2301068,5.1103873,-0.79315186,0.5521927,-0.121025085,0.016616663,0.016526205,0.028479751,0.010744243,-2.3011417,2.5787416,-0.4724617,0.06645449,0.016849833,0.24240473,2.5762863,0.053713392,5.8792515,0.1,0.583298,0.45698196,0.19415724,0.1255932,inf,inf,inf,inf,1,1,1,1,3,1,3,2,6,0,1,1,1,0
563175996,563175092,45936231,42.3585499,-71.08724959999999,4.174974,-3.2266526,5.1103697,-0.79315186,0.5521927,-0.121025085,0.012367137,0.015325306,0.02690685,0.008134547,-2.3011417,2.5787416,-0.4724617,-0.014583356,0.013638836,-0.04067917,2.5766387,0.053713392,5.8792515,0.1,0.57215524,0.4547876,0.18976985,0.12464256,inf,inf,inf,inf,1,1,1,1,3,1,3,2,6,0,1,1,1,0
563275242,563274638,45936231,42.3585499,-71.08724959999999,4.1683025,-3.2249134,5.109086,-0.79315186,0.5521927,-0.121025085,0.009653346,0.012257646,0.024483722,0.003824916,-2.3011417,2.5787416,-0.4724617,-0.018404994,-0.027652735,-0.026785498,2.576913,0.053713392,5.8792515,0.1,0.58413064,0.4560604,0.19463521,0.1255197,inf,inf,inf,inf,1,1,1,1,3,1,3,2,6,0,1,1,1,0
563374745,563374185,45936231,42.3585499,-71.08724959999999,4.1647964,-3.217775,5.1087837,-0.79315186,0.5521927,-0.121025085,0.009004545,0.012602616,0.023776762,0.002606983,-2.3011417,2.5787416,-0.4724617,0.002523974,0.019229239,0.025159234,2.577129,0.053713392,5.8792515,0.1,0.57129997,0.45326698,0.18888362,0.12424466,inf,inf,inf,inf,1,1,1,1,3,1,3,2,6,0,1,1,1,0
563474287,563473731,45936231,42.3585499,-71.08724959999999,4.163398,-3.208881,5.109688,-0.79315186,0.5521927,-0.121025085,0.009186003,0.015643638,0.025199745,0.0045982893,-2.3011417,2.5787416,-0.4724617,-0.010296235,0.00017218885,-0.035700146,2.5773714,0.053713392,5.8792515,0.1,0.58317924,0.45450947,0.19372988,0.12511861,inf,inf,inf,inf,1,1,1,1,3,1,3,2,6,0,1,1,1,0
563573855,563573278,45936231,42.3585499,-71.08724959999999,4.1580234,-3.20286,5.109032,-0.79315186,0.5521927,-0.121025085,0.007445316,0.016914034,0.020647658,-0.00078786723,-2.3011417,2.5787416,-0.4724617,-0.018237729,-0.009771072,-0.091296874,2.5776653,0.053713392,5.8792515,0.1,0.57152903,0.45217714,0.18897837,0.124087505,inf,inf,inf,inf,1,1,1,1,3,1,3,2,6,0,1,1,1,0
563673501,563672824,45936231,42.3585499,-71.08724959999999,4.1527476,-3.1987197,5.108284,-0.79315186,0.5521927,-0.121025085,0.0061530806,0.015711803,0.021069195,-0.00081830774,-2.3011417,2.5787416,-0.4724617,0.0051654675,-0.0388975,0.029298946,2.5779536,0.053713392,5.8792515,0.1,0.5834116,0.4534077,0.19384407,0.12495844,inf,inf,inf,inf,1,1,1,1,3,1,3,2,6,0,1,1,1,0
563772955,563772371,45936231,42.3585499,-71.08724959999999,4.1469293,-3.1946256,5.10965,-0.79315186,0.5521927,-0.121025085,0.006974856,0.013207529,0.025246186,0.0043406924,-2.3011417,2.5787416,-0.4724617,0.007954836,-0.054178532,-0.039988443,2.5782378,0.053713392,5.8792515,0.10068464,0.57450235,0.4560368,0.19142611,0.12506591,inf,inf,inf,inf,1,1,1,1,3,1,3,2,6,0,1,1,1,0
563872481,563871917,45936231,42.3585499,-71.08724959999999,4.1419663,-3.191256,5.1113586,-0.79315186,0.5521927,-0.121025085,0.009158642,0.0112734735,0.024079721,0.004522242,-2.3011417,2.5787416,-0.4724617,-0.13849986,-0.17442256,0.15229116,2.5784924,0.053713392,5.8792515,0.1,0.5866261,0.45730764,0.19629976,0.12593664,inf,inf,inf,inf,1,1,1,1,3,1,3,2,6,0,1,1,1,0
563972029,563971464,45936231,42.3585499,-71.08724959999999,4.1311264,-3.1841257,5.114115,-0.79315186,0.5521927,-0.121025085,0.008862644,0.011112374,0.016045757,-0.00079756806,-2.3011417,2.5787416,-0.4724617,-0.0084522925,0.060611203,-0.24467137,2.5787487,0.053713392,5.8792515,0.10609341,0.5732449,0.45432213,0.19008665,0.12456632,inf,inf,inf,inf,1,1,1,1,3,1,3,2,6,0,1,1,1,0
564071581,564071010,45936231,42.3585499,-71.08724959999999,4.1205716,-3.1770575,5.116804,-0.79315186,0.5521927,-0.121025085,0.0039318698,0.012649633,0.021185607,0.00678719,-2.3011417,2.5787416,-0.4724617,-0.029122114,0.0037095682,-0.038848557,2.5790102,0.053713392,5.8792515,0.10042477,0.5852326,0.45556155,0.19498982,0.12543552,inf,inf,inf,inf,1,1,1,1,3,1,3,2,6,0,1,1,1,0
564171138,564170557,45936231,42.3585499,-71.08724959999999,4.113291,-3.170562,5.1202803,-0.79315186,0.5521927,-0.121025085,0.0010394829,0.014083867,0.022132592,0.010460761,-2.3011417,2.5787416,-0.4724617,-0.044190902,0.0003332453,0.1336065,2.579288,0.053713392,5.8792515,0.10426569,0.5712885,0.45230076,0.18825975,0.12392012,inf,inf,inf,inf,1,1,1,1,3,1,3,2,6,0,1,1,1,0
564270853,564270103,45936231,42.3585499,-71.08724959999999,4.108459,-3.1654007,5.12309,-0.79315186,0.5521927,-0.121025085,0.00079248106,0.012339375,0.022375377,0.01241189,-2.3011417,2.5787416,-0.4724617,-0.0011807784,-0.017364113,-0.011362632,2.579525,0.053713392,5.8792515,0.102390766,0.5830837,0.45350903,0.19309153,0.12479151,inf,inf,inf,inf,1,1,1,1,3,1,3,2,6,0,1,1,1,0
564370404,564369650,45936231,42.3585499,-71.08724959999999,4.1022043,-3.1638677,5.125655,-0.79315186,0.5521927,-0.121025085,0.0035639019,0.006865835,0.02472753,0.015929857,-2.3011417,2.5787416,-0.4724617,0.047130626,-0.056176353,0.087416776,2.5797203,0.053713392,5.8792515,0.100738525,0.57476467,0.45632693,0.19114444,0.12500422,inf,inf,inf,inf,1,1,1,1,3,1,3,2,6,0,1,1,1,0
564469760,564469196,45936231,42.3585499,-71.08724959999999,4.096689,-3.164552,5.1274347,-0.79315186,0.5521927,-0.121025085,0.008055017,0.0022892014,0.022388818,0.0136623755,-2.3011417,2.5787416,-0.4724617,0.02374524,0.011602701,0.01096212,2.5799575,0.053713392,5.8792515,0.1,0.5868457,0.45757726,0.19602257,0.1258738,inf,inf,inf,inf,1,1,1,1,3,1,3,2,6,0,1,1,1,0
564569318,564568743,45936231,42.3585499,-71.08724959999999,4.0913615,-3.1640403,5.1281996,-0.79315186,0.5521927,-0.121025085,0.010094983,-0.0018239528,0.020562664,0.011471932,-2.3011417,2.5787416,-0.4724617,0.0036441572,-0.022690268,0.023696208,2.5801778,0.053713392,5.8792515,0.1,0.57532,0.45530567,0.19133115,0.12488114,inf,inf,inf,inf,1,1,1,1,3,1,3,2,6,0,1,1,1,0
564678820,564678244,45936231,42.3585499,-71.08724959999999,4.087262,-3.163617,5.1280355,-0.79315186,0.5521927,-0.121025085,0.010149721,-0.0023918618,0.02415087,0.013378062,-2.3011417,2.5787416,-0.4724617,-0.008494122,0.027051618,-0.032867137,2.5804965,0.053713392,5.8792515,0.1,0.58865905,0.45743185,0.1967194,0.12593947,inf,inf,inf,inf,1,1,1,1,3,1,3,2,6,0,1,1,1,0
564768455,564767835,45936231,42.3585499,-71.08724959999999,4.0843444,-3.16734,5.1273246,-0.79315186,0.5521927,-0.121025085,0.009699298,-0.0046527227,0.024598932,0.011960427,-2.3011417,2.5787416,-0.4724617,-0.050253082,0.01876925,0.046128996,2.580752,0.053713392,5.8792515,0.1,0.5783263,0.45523617,0.1935444,0.12526093,inf,inf,inf,inf,1,1,1,1,3,1,3,2,6,0,1,1,1,0
564877985,564877337,45936231,42.3585499,-71.08724959999999,4.0819893,-3.1734717,5.126582,-0.79315186,0.5521927,-0.121025085,0.00921728,-0.010836688,0.023892704,0.009321139,-2.3011417,2.5787416,-0.4724617,-0.020614417,-0.09686385,-0.0009866457,2.581014,0.053713392,5.8792515,0.1,0.59191424,0.45734268,0.19896856,0.12630145,inf,inf,inf,inf,1,1,1,1,3,1,3,2,6,0,1,1,1,0
564967548,564966929,45936231,42.3585499,-71.08724959999999,4.070024,-3.1715417,5.127138,-0.79315186,0.5521927,-0.121025085,0.009088413,-0.015030889,0.036738064,0.021561727,-2.3011417,2.5787416,-0.4724617,0.006491077,-0.012832131,0.23867418,2.5811937,0.053713392,5.8792515,0.1,0.5809082,0.45492902,0.1952204,0.12550123,inf,inf,inf,inf,1,1,1,1,3,1,3,2,6,0,1,1,1,0
565077049,565076430,45936231,42.3585499,-71.08724959999999,4.0563745,-3.1685658,5.1287436,-0.79315186,0.5521927,-0.121025085,0.0022973975,-0.012964088,0.047448955,0.030826762,-2.3011417,2.5787416,-0.4724617,-0.042050697,0.014369942,0.07808634,2.5815268,0.053713392,5.8792515,0.1,0.5946894,0.45704272,0.2006108,0.12653384,inf,inf,inf,inf,1,1,1,1,3,1,3,2,6,0,1,1,1,0
565166595,565166022,45936231,42.3585499,-71.08724959999999,4.0426874,-3.1617286,5.131196,-0.79315186,0.5521927,-0.121025085,-0.002709562,-0.010482546,0.045025554,0.028152784,-2.3011417,2.5787416,-0.4724617,-0.010456034,0.0033695989,0.13196386,2.5818088,0.053713392,5.8792515,0.1,0.58395493,0.4587154,0.19704281,0.12637766,inf,inf,inf,inf,1,1,1,1,3,1,3,2,6,0,1,1,1,0
565276134,565275523,45936231,42.3585499,-71.08724959999999,4.027743,-3.1531582,5.133167,-0.79315186,0.5521927,-0.121025085,-0.00458647,-0.0073373425,0.042571265,0.02482449,-2.3011417,2.5787416,-0.4724617,0.005196692,0.015740503,-0.030493367,2.5821216,0.053713392,5.8792515,0.1,0.5979574,0.46085992,0.20253766,0.12740631,inf,inf,inf,inf,1,1,1,1,3,1,3,2,6,0,1,1,1,0
565376039,565375069,45936231,42.3585499,-71.08724959999999,4.010012,-3.1492,5.1340537,-0.79315186,0.5521927,-0.121025085,-0.008050796,-0.0094899675,0.03966574,0.020638857,-2.3011417,2.5787416,-0.4724617,-0.0009859658,-0.041261394,0.013694943,2.5823941,0.053713392,5.8792515,0.1,0.587828,0.45929193,0.19895904,0.1267638,inf,inf,inf,inf,1,1,1,1,3,1,3,2,6,0,1,1,1,0
565475313,565474616,45936231,42.3585499,-71.08724959999999,3.994163,-3.147442,5.134928,-0.79315186,0.5521927,-0.121025085,-0.010094945,-0.011329614,0.037473608,0.017409047,-2.3011417,2.5787416,-0.4724617,0.022138664,-0.02033285,0.08352685,2.5826936,0.053713392,5.8792515,0.1,0.60074115,0.4604966,0.20398049,0.12757796,inf,inf,inf,inf,1,1,1,1,3,1,3,2,6,0,1,1,1,0
565574870,565574162,45936231,42.3585499,-71.08724959999999,3.9808533,-3.1436346,5.1351047,-0.79315186,0.5521927,-0.121025085,-0.009995326,-0.011183707,0.033311144,0.01196844,-2.3011417,2.5787416,-0.4724617,0.013053491,-0.044747364,-0.023385057,2.582962,0.053713392,5.8792515,0.1,0.58886516,0.45833597,0.19898388,0.1266231,inf,inf,inf,inf,1,1,1,1,3,1,3,2,6,0,1,1,1,0
565674323,565673709,45936231,42.3585499,-71.08724959999999,3.9708378,-3.1402705,5.1345935,-0.79315186,0.5521927,-0.121025085,-0.009797979,-0.011403282,0.031229958,0.00851492,-2.3011417,2.5787416,-0.4724617,-0.0004285623,-0.037112117,-0.013808139,2.5832255,0.053713392,5.8792515,0.1,0.6017902,0.45952478,0.204003,0.12743074,inf,inf,inf,inf,1,1,1,1,3,1,3,2,6,0,1,1,1,0
565774006,565773255,45936231,42.3585499,-71.08724959999999,3.953449,-3.1357725,5.135814,-0.79315186,0.5521927,-0.121025085,-0.013870824,-0.011598692,0.035481304,0.01309698,-2.3011417,2.5787416,-0.4724617,-0.0020061173,0.019802693,0.034028728,2.5835135,0.053713392,5.8792515,0.1,0.58384234,0.45516366,0.19406894,0.12531716,inf,inf,inf,inf,1,1,1,1,3,1,3,2,6,0,1,1,1,0
565873372,565872802,45936231,42.3585499,-71.08724959999999,3.9368615,-3.1320662,5.137843,-0.79315186,0.5521927,-0.121025085,-0.017581118,-0.011763709,0.03685395,0.015119802,-2.3011417,2.5787416,-0.4724617,0.003166746,-0.022284389,-0.01892611,2.5837812,0.053713392,5.8792515,0.1,0.59626645,0.46029004,0.19895598,0.12671742,inf,inf,inf,inf,1,1,1,1,3,1,3,2,6,0,1,1,1,0
565972948,565972348,45936231,42.3585499,-71.08724959999999,3.9218712,-3.1267414,5.1391244,-0.79315186,0.5521927,-0.121025085,-0.018997597,-0.012622347,0.035411876,0.0135894995,-2.3011417,2.5787416,-0.4724617,0.0119778495,-0.041041635,-0.012953196,2.5840223,0.053713392,5.8792515,0.1,0.5865717,0.45873895,0.19573873,0.12610734,inf,inf,inf,inf,1,1,1,1,3,1,3,2,6,0,1,1,1,0
566072517,566071895,45936231,42.3585499,-71.08724959999999,3.9100115,-3.122324,5.1399546,-0.79315186,0.5521927,-0.121025085,-0.020215938,-0.013481468,0.036270477,0.013975902,-2.3011417,2.5787416,-0.4724617,-0.032491706,-0.08692209,-0.045312397,2.5842323,0.053713392,5.8792515,0.1,0.5991676,0.45994118,0.2006792,0.12693472,inf,inf,inf,inf,1,1,1,1,3,1,3,2,6,0,1,1,1,0
566172002,566171441,45936231,42.3585499,-71.08724959999999,3.8933883,-3.1169639,5.142832,-0.79315186,0.5521927,-0.121025085,-0.023796424,-0.012691031,0.036164973,0.0154436305,-2.3011417,2.5787416,-0.4724617,-0.04256313,-0.08020773,0.00929151,2.584402,0.053713392,5.8792515,0.10125303,0.582017,0.4556119,0.19132607,0.12486436,inf,inf,inf,inf,1,1,1,1,3,1,3,2,6,0,1,1,1,0
566271626,566270988,45936231,42.3585499,-71.08724959999999,3.8764973,-3.112113,5.1454616,-0.79315186,0.5521927,-0.121025085,-0.025248356,-0.012794005,0.036151506,0.01651852,-2.3011417,2.5787416,-0.4724617,0.049106713,0.05600835,0.030542957,2.5845985,0.053713392,5.8792515,0.1,0.59415907,0.4567777,0.19617932,0.12570427,inf,inf,inf,inf,1,1,1,1,3,1,3,2,6,0,1,1,1,0
566371146,566370534,45936231,42.3585499,-71.08724959999999,3.8592038,-3.1031842,5.14699,-0.79315186,0.5521927,-0.121025085,-0.02546433,-0.009935607,0.03389235,0.014285211,-2.3011417,2.5787416,-0.4724617,0.024319854,0.00056053593,-0.06529439,2.5848203,0.053713392,5.8792515,0.1,0.58546454,0.4594604,0.19378604,0.12582736,inf,inf,inf,inf,1,1,1,1,3,1,3,2,6,0,1,1,1,0
566470742,566470081,45936231,42.3585499,-71.08724959999999,3.8436408,-3.0936403,5.148149,-0.79315186,0.5521927,-0.121025085,-0.02792702,-0.008133093,0.03013811,0.010458464,-2.3011417,2.5787416,-0.4724617,0.0020511337,-0.031360224,-0.07625694,2.5850577,0.053713392,5.8792515,0.1,0.5978493,0.46065027,0.19869378,0.12666339,inf,inf,inf,inf,1,1,1,1,3,1,3,2,6,0,1,1,1,0
566570331,566569628,45936231,42.3585499,-71.08724959999999,3.825968,-3.0832667,5.1488295,-0.79315186,0.5521927,-0.121025085,-0.033129577,-0.0056895665,0.029953538,0.00994872,-2.3011417,2.5787416,-0.4724617,-0.031130632,0.0009834687,0.017213246,2.5853064,0.053713392,5.8792515,0.1,0.5868489,0.45858067,0.19439815,0.12578745,inf,inf,inf,inf,1,1,1,1,3,1,3,2,6,0,1,1,1,0
566669833,566669174,45936231,42.3585499,-71.08724959999999,3.8089726,-3.0737686,5.147977,-0.79315186,0.5521927,-0.121025085,-0.039170336,-0.0022471468,0.030900525,0.009031715,-2.3011417,2.5787416,-0.4724617,-0.02613798,0.020950848,0.052489758,2.5855544,0.053713392,5.8792515,0.1,0.5992901,0.45977515,0.1993052,0.12662207,inf,inf,inf,inf,1,1,1,1,3,1,3,2,6,0,1,1,1,0
566779309,566778679,45936231,42.3585499,-71.08724959999999,3.796676,-3.0529385,5.1463084,-0.79315186,0.5521927,-0.121025085,-0.04165483,0.0058215396,0.03494442,0.010360911,-2.3011417,2.5787416,-0.4724617,-0.033661604,-0.005553998,0.12885822,2.5858166,0.053713392,5.8792515,0.1,0.5908889,0.4591331,0.19657542,0.126213,inf,inf,inf,inf,1,1,1,1,3,1,3,2,6,0,1,1,1,0
566868832,566868267,45936231,42.3585499,-71.08724959999999,3.7897503,-3.0346715,5.145826,-0.79315186,0.5521927,-0.121025085,-0.042624686,0.0119481925,0.04024054,0.014126096,-2.3011417,2.5787416,-0.4724617,-0.027892847,-0.0057691387,0.10225461,2.5860667,0.053713392,5.8792515,0.1,0.60226405,0.45939538,0.20100589,0.12683544,inf,inf,inf,inf,1,1,1,1,3,1,3,2,6,0,1,1,1,0
566978406,566977768,45936231,42.3585499,-71.08724959999999,3.7819798,-3.0123854,5.1464267,-0.79315186,0.5521927,-0.121025085,-0.043550473,0.01998724,0.046254728,0.018998692,-2.3011417,2.5787416,-0.4724617,-0.014527245,-0.016690886,-0.022397036,2.5863628,0.053713392,5.8792515,0.1,0.5931746,0.45852953,0.19766445,0.12630421,inf,inf,inf,inf,1,1,1,1,3,1,3,2,6,0,1,1,1,0
567067954,567067360,45936231,42.3585499,-71.08724959999999,3.7765481,-2.9963048,5.1488075,-0.79315186,0.5521927,-0.121025085,-0.0427794,0.025933767,0.04813046,0.021592123,-2.3011417,2.5787416,-0.4724617,-0.017678076,0.047437757,0.14008835,2.5865734,0.053713392,5.8792515,0.1,0.60465235,0.46277314,0.20209847,0.12749799,inf,inf,inf,inf,1,1,1,1,3,1,3,2,6,0,1,1,1,0
567177420,567176861,45936231,42.3585499,-71.08724959999999,3.7693405,-2.9745505,5.1534452,-0.79315186,0.5521927,-0.121025085,-0.04143219,0.0321127,0.04668313,0.02251951,-2.3011417,2.5787416,-0.4724617,-0.016961833,-0.0048299865,-0.028323667,2.5868354,0.053713392,5.8792515,0.100036144,0.5943491,0.461463,0.19777529,0.12673552,inf,inf,inf,inf,1,1,1,1,3,1,3,2,6,0,1,1,1,0
567267071,567266453,45936231,42.3585499,-71.08724959999999,3.7642741,-2.9591012,5.1559963,-0.79315186,0.5521927,-0.121025085,-0.039349955,0.03578022,0.042472728,0.019021157,-2.3011417,2.5787416,-0.4724617,0.01618312,-0.0844544,-0.3380542,2.5870962,0.053713392,5.8792515,0.1,0.60584027,0.4617252,0.20224188,0.12735349,inf,inf,inf,inf,1,1,1,1,3,1,3,2,6,0,1,1,1,0
567376536,567375954,45936231,42.3585499,-71.08724959999999,3.7583241,-2.93641,5.158989,-0.79315186,0.5521927,-0.121025085,-0.0360967,0.040784337,0.038775135,0.016494134,-2.3011417,2.5787416,-0.4724617,-0.01034556,0.019719584,0.0847771,2.5873947,0.053713392,5.8792515,0.1,0.597101,0.46099824,0.19920276,0.126889,inf,inf,inf,inf,1,1,1,1,3,1,3,2,6,0,1,1,1,0
567476092,567475505,45936231,42.3585499,-71.08724959999999,3.7539701,-2.9182725,5.160888,-0.79315186,0.5521927,-0.121025085,-0.03320371,0.04483016,0.039168846,0.017075,-2.3011417,2.5787416,-0.4724617,0.04480926,0.012954424,0.049390722,2.5876522,0.053713392,5.8792515,0.1,0.6100431,0.46215463,0.20419998,0.12768915,inf,inf,inf,inf,1,1,1,1,3,1,3,2,6,0,1,1,1,0
567575755,567575047,45936231,42.3585499,-71.08724959999999,3.7536392,-2.8959615,5.165693,-0.79315186,0.5521927,-0.121025085,-0.026606442,0.04986607,0.037956443,0.019049324,-2.3011417,2.5787416,-0.4724617,0.02317307,-0.0061303074,-0.008180753,2.5879145,0.053713392,5.8792515,0.10545826,0.5999095,0.4605049,0.20055716,0.12702319,inf,inf,inf,inf,1,1,1,1,3,1,3,2,6,0,1,1,1,0
567675631,567674594,45936231,42.3585499,-71.08724959999999,3.754402,-2.8768058,5.1705184,-0.79315186,0.5521927,-0.121025085,-0.02166902,0.05361924,0.03483908,0.018954672,-2.3011417,2.5787416,-0.4724617,0.038083293,-0.00073673856,-0.00321495,2.5881422,0.053713392,5.8792515,0.10232592,0.6129931,0.46163294,0.20556735,0.12780799,inf,inf,inf,inf,1,1,1,1,3,1,3,2,6,0,1,1,1,0
567774856,567774140,45936231,42.3585499,-71.08724959999999,3.7605574,-2.8419564,5.175477,-0.79315186,0.5521927,-0.121025085,-0.0131762605,0.064042024,0.035690058,0.022706648,-2.3011417,2.5787416,-0.4724617,0.00071149203,0.006886985,-0.013986876,2.5883665,0.053713392,5.8792515,0.10459089,0.60393554,0.46445274,0.20279455,0.12794612,inf,inf,inf,inf,1,1,1,1,3,1,3,2,6,0,1,1,1,0
567874272,567873687,45936231,42.3585499,-71.08724959999999,3.7678633,-2.8071382,5.179016,-0.79315186,0.5521927,-0.121025085,-0.006029563,0.075714044,0.03993838,0.027923942,-2.3011417,2.5787416,-0.4724617,0.0026223871,0.011602664,0.07394854,2.5887156,0.053713392,5.8792515,0.1,0.6172531,0.46561465,0.20783012,0.12872978,inf,inf,inf,inf,1,1,1,1,3,1,3,2,6,0,1,1,1,0
567973845,567973234,45936231,42.3585499,-71.08724959999999,3.7683196,-2.7729297,5.1820717,-0.79315186,0.5521927,-0.121025085,-0.0018825007,0.0862861,0.042942025,0.03097431,-2.3011417,2.5787416,-0.4724617,0.0052427677,-0.02882494,0.03941906,2.589009,0.053713392,5.8792515,0.1,0.6073804,0.46413955,0.2043587,0.12814376,inf,inf,inf,inf,1,1,1,1,3,1,3,2,6,0,1,1,1,0
568073418,568072780,45936231,42.3585499,-71.08724959999999,3.7680473,-2.744226,5.184621,-0.79315186,0.5521927,-0.121025085,-0.00075501716,0.094338566,0.050975483,0.038049437,-2.3011417,2.5787416,-0.4724617,-0.035906594,-0.03645886,0.12133315,2.5892546,0.053713392,5.8792515,0.1,0.62086874,0.46528655,0.20940268,0.12891401,inf,inf,inf,inf,1,1,1,1,3,1,3,2,6,0,1,1,1,0
568172916,568172327,45936231,42.3585499,-71.08724959999999,3.7571478,-2.7213702,5.190087,-0.79315186,0.5521927,-0.121025085,-0.0057179625,0.0983785,0.054901477,0.04334373,-2.3011417,2.5787416,-0.4724617,-0.014266718,0.008921387,-0.008171561,2.5894804,0.053713392,5.8792515,0.10122824,0.6075371,0.46268165,0.20321377,0.12774517,inf,inf,inf,inf,1,1,1,1,3,1,3,2,6,0,1,1,1,0
568272552,568271873,45936231,42.3585499,-71.08724959999999,3.7466326,-2.7027566,5.1953316,-0.79315186,0.5521927,-0.121025085,-0.009174538,0.1006489,0.05506116,0.044164587,-2.3011417,2.5787416,-0.4724617,-0.0053654863,0.0014269722,-0.036778737,2.5897138,0.053713392,5.8792515,0.1,0.6209164,0.46379516,0.2082258,0.12850975,inf,inf,inf,inf,1,1,1,1,3,1,3,2,6,0,1,1,1,0
568372165,568371420,45936231,42.3585499,-71.08724959999999,3.7314527,-2.6837432,5.1992717,-0.79315186,0.5521927,-0.121025085,-0.012956588,0.104020044,0.05750889,0.04605649,-2.3011417,2.5787416,-0.4724617,-0.054989196,-0.07664788,0.104027174,2.5899534,0.053713392,5.8792515,0.1,0.60937625,0.46174434,0.20347233,0.12763056,inf,inf,inf,inf,1,1,1,1,3,1,3,2,6,0,1,1,1,0
568471538,568470966,45936231,42.3585499,-71.08724959999999,3.7184541,-2.667103,5.2022724,-0.79315186,0.5521927,-0.121025085,-0.017031537,0.10446323,0.048091725,0.035582975,-2.3011417,2.5787416,-0.4724617,-0.033852514,-0.007522415,-0.082884915,2.5902612,0.053713392,5.8792515,0.1,0.6227875,0.4669605,0.20848747,0.12899935,inf,inf,inf,inf,1,1,1,1,3,1,3,2,6,0,1,1,1,0
568571078,568570513,45936231,42.3585499,-71.08724959999999,3.701019,-2.6492631,5.2045302,-0.79315186,0.5521927,-0.121025085,-0.022467002,0.10630976,0.048945565,0.034984756,-2.3011417,2.5787416,-0.4724617,-0.021015087,0.0021665453,-0.15091872,2.5905418,0.053713392,5.8792515,0.1,0.61394256,0.46578842,0.20585008,0.1285751,inf,inf,inf,inf,1,1,1,1,3,1,3,2,6,0,1,1,1,0
568670624,568670059,45936231,42.3585499,-71.08724959999999,3.6860464,-2.6332989,5.2067056,-0.79315186,0.5521927,-0.121025085,-0.026637686,0.10876618,0.050108824,0.034703046,-2.3011417,2.5787416,-0.4724617,-0.008929199,0.06964245,-0.006899319,2.5907853,0.053713392,5.8792515,0.1,0.627603,0.46691874,0.21090792,0.1293309,inf,inf,inf,inf,1,1,1,1,3,1,3,2,6,0,1,1,1,0
568770328,568769606,45936231,42.3585499,-71.08724959999999,3.6636536,-2.6482506,5.2083573,-0.79315186,0.5521927,-0.121025085,-0.032488875,0.09402081,0.05204138,0.034760565,-2.3011417,2.5787416,-0.4724617,-0.005597845,0.008638106,0.051611185,2.5910473,0.053713392,5.8792515,0.1,0.61814195,0.46558613,0.20773482,0.12881894,inf,inf,inf,inf,1,1,1,1,3,1,3,2,6,0,1,1,1,0
568869751,568869152,45936231,42.3585499,-71.08724959999999,3.6440883,-2.6651118,5.2102966,-0.79315186,0.5521927,-0.121025085,-0.037048947,0.08012933,0.05601502,0.03707242,-2.3011417,2.5787416,-0.4724617,-0.10421416,-0.1246721,0.36288273,2.591333,0.053713392,5.8792515,0.1,0.63200635,0.4667001,0.2128134,0.12955959,inf,inf,inf,inf,1,1,1,1,3,1,3,2,6,0,1,1,1,0
568969315,568968699,45936231,42.3585499,-71.08724959999999,3.6197743,-2.6684768,5.2126665,-0.79315186,0.5521927,-0.121025085,-0.044313345,0.07069837,0.05344821,0.033337276,-2.3011417,2.5787416,-0.4724617,-0.033719152,-0.08870804,-0.059503186,2.5916023,0.053713392,5.8792515,0.1,0.6226128,0.46546322,0.20972793,0.12909013,inf,inf,inf,inf,1,1,1,1,3,1,3,2,6,0,1,1,1,0
569078845,569078200,45936231,42.3585499,-71.08724959999999,3.5955248,-2.666781,5.214257,-0.79315186,0.5521927,-0.121025085,-0.049443834,0.06737097,0.058503833,0.035979208,-2.3011417,2.5787416,-0.4724617,0.0116214175,0.04730113,0.08102487,2.5917666,0.053713392,5.8792515,0.1,0.63813573,0.467492,0.2153669,0.13000825,inf,inf,inf,inf,1,1,1,1,3,1,3,2,6,0,1,1,1,0
569168458,569167792,45936231,42.3585499,-71.08724959999999,3.5829759,-2.661967,5.218726,-0.79315186,0.5521927,-0.121025085,-0.04984302,0.06580954,0.05985513,0.038592372,-2.3011417,2.5787416,-0.4724617,-3.572266e-05,0.027457755,0.16993892,2.591901,0.053713392,5.8792515,0.1,0.6219007,0.46785554,0.20772822,0.12913272,inf,inf,inf,inf,1,1,1,1,3,1,3,2,6,0,1,1,1,0
569277969,569277293,45936231,42.3585499,-71.08724959999999,3.5718412,-2.6555915,5.222401,-0.79315186,0.5521927,-0.121025085,-0.048764393,0.06628094,0.061856788,0.04003907,-2.3011417,2.5787416,-0.4724617,0.023608476,0.023822222,0.10492451,2.5921159,0.053713392,5.8792515,0.1,0.6372006,0.46989706,0.213299,0.1300617,inf,inf,inf,inf,1,1,1,1,3,1,3,2,6,0,1,1,1,0
569367536,569366885,45936231,42.3585499,-71.08724959999999,3.5672307,-2.6515298,5.2262425,-0.79315186,0.5521927,-0.121025085,-0.04741649,0.06145782,0.058366377,0.037061952,-2.3011417,2.5787416,-0.4724617,-0.031692322,-0.059444834,-0.058733884,2.5922947,0.053713392,5.8792515,0.1,0.6242818,0.46709183,0.20823506,0.12908167,inf,inf,inf,inf,1,1,1,1,3,1,3,2,6,0,1,1,1,0
569476965,569476386,45936231,42.3585499,-71.08724959999999,3.5640442,-2.6475306,5.2293067,-0.79315186,0.5521927,-0.121025085,-0.043562215,0.05653269,0.055338554,0.03321299,-2.3011417,2.5787416,-0.4724617,0.017970106,-0.041368682,0.02350405,2.5925317,0.053713392,5.8792515,0.1,0.6396424,0.46913162,0.21384057,0.13000628,inf,inf,inf,inf,1,1,1,1,3,1,3,2,6,0,1,1,1,0
569576497,569575933,45936231,42.3585499,-71.08724959999999,3.5642,-2.6495018,5.232364,-0.79315186,0.5521927,-0.121025085,-0.038482185,0.049831096,0.056516845,0.03387592,-2.3011417,2.5787416,-0.4724617,-0.03578207,-0.15866233,0.19595982,2.59271,0.053713392,5.8792515,0.1,0.6300878,0.46790648,0.21082374,0.129548,inf,inf,inf,inf,1,1,1,1,3,1,3,2,6,0,1,1,1,0
569676033,569675479,45936231,42.3585499,-71.08724959999999,3.5651457,-2.6527412,5.2341495,-0.79315186,0.5521927,-0.121025085,-0.03524446,0.04340953,0.060929872,0.036390062,-2.3011417,2.5787416,-0.4724617,-0.024758033,0.02110239,0.020147773,2.5929577,0.053713392,5.8792515,0.1,0.6442971,0.46896836,0.21592951,0.13025452,inf,inf,inf,inf,1,1,1,1,3,1,3,2,6,0,1,1,1,0
569775606,569775026,45936231,42.3585499,-71.08724959999999,3.5612683,-2.6546795,5.238618,-0.79315186,0.5521927,-0.121025085,-0.03517351,0.038508832,0.06295528,0.039130077,-2.3011417,2.5787416,-0.4724617,-0.0014002876,0.053298313,0.03591004,2.5932183,0.053713392,5.8792515,0.1,0.6274433,0.46974337,0.207461,0.12930235,inf,inf,inf,inf,1,1,1,1,3,1,3,2,6,0,1,1,1,0
569875431,569874572,45936231,42.3585499,-71.08724959999999,3.556418,-2.6557894,5.24229,-0.79315186,0.5521927,-0.121025085,-0.034323893,0.03568042,0.064154,0.039967116,-2.3011417,2.5787416,-0.4724617,0.01055707,-0.008121058,0.023771266,2.5934727,0.053713392,5.8792515,0.1,0.6413023,0.47079846,0.2124952,0.13002212,inf,inf,inf,inf,1,1,1,1,3,1,3,2,6,0,1,1,1,0
569974690,569974119,45936231,42.3585499,-71.08724959999999,3.5506766,-2.6482124,5.2468295,-0.79315186,0.5521927,-0.121025085,-0.033301618,0.035296384,0.06410863,0.04050444,-2.3011417,2.5787416,-0.4724617,0.004568388,0.0027451618,0.012866076,2.5937243,0.053713392,5.8792515,0.1,0.62941355,0.4687796,0.20776516,0.12917656,inf,inf,inf,inf,1,1,1,1,3,1,3,2,6,0,1,1,1,0
570074222,570073665,45936231,42.3585499,-71.08724959999999,3.5454547,-2.63907,5.2505565,-0.79315186,0.5521927,-0.121025085,-0.03234195,0.035438232,0.063634634,0.039678976,-2.3011417,2.5787416,-0.4724617,-0.0002514794,-0.016386705,-0.07669331,2.594024,0.053713392,5.8792515,0.1,0.6432988,0.46983552,0.21280988,0.12989454,inf,inf,inf,inf,1,1,1,1,3,1,3,2,6,0,1,1,1,0
570173774,570173212,45936231,42.3585499,-71.08724959999999,3.5364363,-2.621676,5.25211,-0.79315186,0.5521927,-0.121025085,-0.032900024,0.038930688,0.06347443,0.037160203,-2.3011417,2.5787416,-0.4724617,0.008835314,0.0035601433,0.0410572,2.5942998,0.053713392,5.8792515,0.1,0.6341099,0.46870363,0.21012537,0.12949139,inf,inf,inf,inf,1,1,1,1,3,1,3,2,6,0,1,1,1,0
570273350,570272758,45936231,42.3585499,-71.08724959999999,3.527518,-2.6042302,5.251303,-0.79315186,0.5521927,-0.121025085,-0.03481403,0.04245039,0.06466144,0.033934187,-2.3011417,2.5787416,-0.4724617,-0.029654857,-0.021139702,0.050878234,2.5945551,0.053713392,5.8792515,0.1,0.6482351,0.46972555,0.21520539,0.1301886,inf,inf,inf,inf,1,1,1,1,3,1,3,2,6,0,1,1,1,0
570372965,570372305,45936231,42.3585499,-71.08724959999999,3.5176241,-2.596726,5.2515783,-0.79315186,0.5521927,-0.121025085,-0.038808055,0.042308304,0.06666884,0.03287447,-2.3011417,2.5787416,-0.4724617,-0.005818705,0.00023912785,0.038304914,2.5947807,0.053713392,5.8792515,0.1,0.6378884,0.46828973,0.21166262,0.12962735,inf,inf,inf,inf,1,1,1,1,3,1,3,2,6,0,1,1,1,0
570472447,570471852,45936231,42.3585499,-71.08724959999999,3.5086577,-2.592981,5.2502117,-0.79315186,0.5521927,-0.121025085,-0.039335653,0.039441068,0.062141046,0.024036394,-2.3011417,2.5787416,-0.4724617,0.0067727775,-0.03367121,-0.06383763,2.594961,0.053713392,5.8792515,0.1,0.65217084,0.47357032,0.21675262,0.13095774,inf,inf,inf,inf,1,1,1,1,3,1,3,2,6,0,1,1,1,0
570572010,570571398,45936231,42.3585499,-71.08724959999999,3.501351,-2.5874343,5.2470684,-0.79315186,0.5521927,-0.121025085,-0.035725724,0.03706156,0.057543706,0.014433907,-2.3011417,2.5787416,-0.4724617,0.021348417,-0.022283765,0.025453897,2.5951781,0.053713392,5.8792515,0.1,0.6445011,0.47292548,0.2151834,0.13079692,inf,inf,inf,inf,1,1,1,1,3,1,3,2,6,0,1,1,1,0
570671508,570670948,45936231,42.3585499,-71.08724959999999,3.4957325,-2.582167,5.2423882,-0.79315186,0.5521927,-0.121025085,-0.031745277,0.033635758,0.053071707,0.004449096,-2.3011417,2.5787416,-0.4724617,0.02162198,-0.048420105,0.105787,2.595411,0.053713392,5.8792515,0.1,0.65915203,0.47393784,0.2203582,0.13146828,inf,inf,inf,inf,1,1,1,1,3,1,3,2,6,0,1,1,1,0
570771054,570770491,45936231,42.3585499,-71.08724959999999,3.4919882,-2.5760736,5.2374268,-0.79315186,0.5521927,-0.121025085,-0.027560761,0.03126582,0.05036514,-0.0030943006,-2.3011417,2.5787416,-0.4724617,0.03340183,-0.002797218,0.013471889,2.5956411,0.053713392,5.8792515,0.1,0.65164757,0.47338468,0.21886571,0.13134143,inf,inf,inf,inf,1,1,1,1,3,1,3,2,6,0,1,1,1,0
570870649,570870038,45936231,42.3585499,-71.08724959999999,3.4894302,-2.5705824,5.232426,-0.79315186,0.5521927,-0.121025085,-0.024520831,0.029915955,0.050994657,-0.0067732194,-2.3011417,2.5787416,-0.4724617,0.009265368,-0.020928929,0.029926976,2.595881,0.053713392,5.8792515,0.1,0.6666878,0.47437426,0.22408797,0.13198914,inf,inf,inf,inf,1,1,1,1,3,1,3,2,6,0,1,1,1,0
570970221,570969584,45936231,42.3585499,-71.08724959999999,3.494637,-2.5588233,5.22931,-0.79315186,0.5521927,-0.121025085,-0.019054532,0.031224145,0.050193705,-0.009522843,-2.3011417,2.5787416,-0.4724617,0.0025294595,-0.016040241,0.0032802974,2.5961366,0.053713392,5.8792515,0.1,0.65695804,0.4732709,0.22095375,0.1315756,inf,inf,inf,inf,1,1,1,1,3,1,3,2,6,0,1,1,1,0
571069835,571069134,45936231,42.3585499,-71.08724959999999,3.5014505,-2.5467987,5.2264624,-0.79315186,0.5521927,-0.121025085,-0.013692341,0.03295501,0.048018865,-0.013112037,-2.3011417,2.5787416,-0.4724617,0.0020631112,-0.0132197095,-0.045879647,2.5964303,0.053713392,5.8792515,0.1,0.67222565,0.47865087,0.22619581,0.13288577,inf,inf,inf,inf,1,1,1,1,3,1,3,2,6,0,1,1,1,0
571169376,571168677,45936231,42.3585499,-71.08724959999999,3.507629,-2.534015,5.225535,-0.79315186,0.5521927,-0.121025085,-0.008350045,0.03577404,0.04738922,-0.012869918,-2.3011417,2.5787416,-0.4724617,0.027885757,0.0517071,0.09154109,2.5967107,0.053713392,5.8792515,0.1,0.66053945,0.47703615,0.22174673,0.13222533,inf,inf,inf,inf,1,1,1,1,3,1,3,2,6,0,1,1,1,0
571268792,571268224,45936231,42.3585499,-71.08724959999999,3.5129268,-2.5226846,5.2251134,-0.79315186,0.5521927,-0.121025085,-0.0044733277,0.036073945,0.0476069,-0.011473111,-2.3011417,2.5787416,-0.4724617,0.016162762,0.030546121,-0.15730889,2.5969634,0.053713392,5.8792515,0.1,0.6758973,0.47800547,0.22699337,0.13285233,inf,inf,inf,inf,1,1,1,1,3,1,3,2,6,0,1,1,1,0
571378392,571377725,45936231,42.3585499,-71.08724959999999,3.524267,-2.5155165,5.225392,-0.79315186,0.5521927,-0.121025085,0.0037685728,0.03585407,0.04858262,-0.008676467,-2.3011417,2.5787416,-0.4724617,0.044158313,0.04892199,0.028546704,2.597194,0.053713392,5.8792515,0.1,0.66828096,0.47807714,0.22491786,0.13274068,inf,inf,inf,inf,1,1,1,1,3,1,3,2,6,0,1,1,1,0
571467936,571467317,45936231,42.3585499,-71.08724959999999,3.533659,-2.5114486,5.22523,-0.79315186,0.5521927,-0.121025085,0.009956195,0.03479302,0.051054403,-0.0054636286,-2.3011417,2.5787416,-0.4724617,0.0058563184,0.0038322203,0.013827428,2.5973446,0.053713392,5.8792515,0.1,0.682388,0.47803771,0.2296746,0.1331494,inf,inf,inf,inf,1,1,1,1,3,1,3,2,6,0,1,1,1,0
571577467,571576818,45936231,42.3585499,-71.08724959999999,3.5455005,-2.5109036,5.22405,-0.79315186,0.5521927,-0.121025085,0.016595436,0.030972028,0.0541904,-0.0026934044,-2.3011417,2.5787416,-0.4724617,0.0010393277,-0.043664597,0.17899793,2.5975137,0.053713392,5.8792515,0.1,0.6743363,0.47808787,0.22732817,0.13301456,inf,inf,inf,inf,1,1,1,1,3,1,3,2,6,0,1,1,1,0
571677019,571676365,45936231,42.3585499,-71.08724959999999,3.5550787,-2.5113056,5.2237134,-0.79315186,0.5521927,-0.121025085,0.021597859,0.027923306,0.054918695,-0.0017536699,-2.3011417,2.5787416,-0.4724617,-0.007876121,-0.024725579,0.027110932,2.5977225,0.053713392,5.8792515,0.1,0.6903053,0.47901052,0.23263077,0.13360235,inf,inf,inf,inf,1,1,1,1,3,1,3,2,6,0,1,1,1,0
