timestamp,timestamp_sample,ref_timestamp,ref_lat,ref_lon,x,y,z,delta_xy[0],delta_xy[1],delta_z,vx,vy,vz,z_deriv,delta_vxy[0],delta_vxy[1],delta_vz,ax,ay,az,heading,delta_heading,ref_alt,dist_bottom,eph,epv,evh,evv,vxy_max,vz_max,hagl_min,hagl_max,xy_valid,z_valid,v_xy_valid,v_z_valid,xy_reset_counter,z_reset_counter,vxy_reset_counter,vz_reset_counter,heading_reset_counter,heading_good_for_control,xy_global,z_global,dist_bottom_valid,dist_bottom_sensor_bitfield
539792212,539791676,45936231,42.3585499,-71.08724959999999,3.5118442,-2.9675152,5.3966985,-5.0257313e-05,0.00017889676,0.0,0.047913525,0.023389442,0.022981877,0.012191707,-0.00027487415,-0.058527347,0.14861168,0.029688759,0.02094736,0.00033494507,2.5834622,0.053713392,5.8792515,0.101686954,0.62527436,0.46208912,0.20629291,0.12835236,inf,inf,inf,inf,1,1,1,1,2,0,2,1,4,0,1,1,1,0
540290057,540289407,45936231,42.3585499,-71.08724959999999,3.541905,-2.9900305,5.4030547,-5.0257313e-05,0.00017889676,0.0,0.046127535,0.021012254,0.02067075,0.011797356,-0.00027487415,-0.058527347,0.14861168,0.0031456295,-0.057964556,-0.17513685,2.5834708,0.053713392,5.8792515,0.1,0.62600464,0.4573677,0.20103776,0.12669124,inf,inf,inf,inf,1,1,1,1,2,0,2,1,4,0,1,1,1,0
540787659,540787137,45936231,42.3585499,-71.08724959999999,3.5767982,-3.0367808,5.395305,-5.0257313e-05,0.00017889676,0.0,0.04656107,0.0059301183,0.01503233,-0.0012602577,-0.00027487415,-0.058527347,0.14861168,-0.017057072,-0.033476777,0.04959156,2.5830643,0.053713392,5.8792515,0.1,0.59223914,0.44819292,0.17981604,0.12153621,inf,inf,inf,inf,1,1,1,1,2,0,2,1,4,0,1,1,1,0
541285400,541284867,45936231,42.3585499,-71.08724959999999,3.58404,-3.1120548,5.379463,-5.0257313e-05,0.00017889676,0.0,0.031431846,-0.018328061,0.012476632,-0.01661969,-0.00027487415,-0.058527347,0.14861168,-0.0052441293,-0.027703961,-0.06462224,2.5826547,0.053713392,5.8792515,0.1,0.595467,0.44819117,0.18145037,0.12159176,inf,inf,inf,inf,1,1,1,1,2,0,2,1,4,0,1,1,1,0
541783247,541782597,45936231,42.3585499,-71.08724959999999,3.5956576,-3.1761582,5.3569555,-5.0257313e-05,0.00017889676,0.0,0.021001304,-0.03332332,0.012865777,-0.02581584,-0.00027487415,-0.058527347,0.14861168,-0.019353576,-0.002384262,0.051675387,2.5825741,0.053713392,5.8792515,0.1,0.58180434,0.44677815,0.1790364,0.1209404,inf,inf,inf,inf,1,1,1,1,2,0,2,1,4,0,1,1,1,0
542290965,542290282,45936231,42.3585499,-71.08724959999999,3.6135516,-3.2264924,5.3396144,-5.0257313e-05,0.00017889676,0.0,0.01937451,-0.04354478,0.008021182,-0.033824965,-0.00027487415,-0.058527347,0.14861168,0.027012244,-0.012365674,-0.08587068,2.5821798,0.053713392,5.8792515,0.1,0.5952606,0.44814813,0.1888483,0.12288094,inf,inf,inf,inf,1,1,1,1,2,0,2,1,4,0,1,1,1,0
542788534,542788013,45936231,42.3585499,-71.08724959999999,3.6290824,-3.313023,5.3061957,-5.0257313e-05,0.00017889676,0.0,0.012172472,-0.06637495,0.0010597141,-0.04955421,-0.00027487415,-0.058527347,0.14861168,-0.006870861,-0.06640722,-0.087470554,2.5816693,0.053713392,5.8792515,0.1,0.5832948,0.44759423,0.18576446,0.12239857,inf,inf,inf,inf,1,1,1,1,2,0,2,1,4,0,1,1,1,0
543286337,543285743,45936231,42.3585499,-71.08724959999999,3.6427324,-3.3568377,5.276918,-5.0257313e-05,0.00017889676,0.0,0.008644929,-0.07050348,-0.016120058,-0.06381891,-0.00027487415,-0.058527347,0.14861168,0.016304333,0.00040072753,-0.032534737,2.581485,0.053713392,5.8792515,0.10529137,0.59235394,0.4500622,0.19064347,0.12355109,inf,inf,inf,inf,1,1,1,1,2,0,2,1,4,0,1,1,1,0
543793959,543793429,45936231,42.3585499,-71.08724959999999,3.6466334,-3.3720067,5.256283,-5.0257313e-05,0.00017889676,0.0,0.0032773754,-0.061592735,-0.017589673,-0.05412899,-0.00027487415,-0.058527347,0.14861168,-0.025507957,0.0028047354,0.05053955,2.5811696,0.053713392,5.8792515,0.10839319,0.5787019,0.4491162,0.18478687,0.12251819,inf,inf,inf,inf,1,1,1,1,2,0,2,1,4,0,1,1,1,0
544291803,544291159,45936231,42.3585499,-71.08724959999999,3.6802745,-3.3773265,5.2412686,-5.0257313e-05,0.00017889676,0.0,0.01092103,-0.04617666,-0.008201623,-0.037546713,-0.00027487415,-0.058527347,0.14861168,-0.009279236,0.003368539,-0.014778001,2.5806155,0.053713392,5.8792515,0.1,0.58944666,0.44851655,0.19086163,0.12348081,inf,inf,inf,inf,1,1,1,1,2,0,2,1,4,0,1,1,1,0
544789538,544788889,45936231,42.3585499,-71.08724959999999,3.7026477,-3.368411,5.234106,-5.0257313e-05,0.00017889676,0.0,0.019601472,-0.030843096,-0.008335724,-0.029192917,-0.00027487415,-0.058527347,0.14861168,0.011912981,-0.00038487263,-0.050116282,2.5805483,0.053713392,5.8792515,0.105796814,0.5781377,0.4481755,0.1876454,0.123037584,inf,inf,inf,inf,1,1,1,1,2,0,2,1,4,0,1,1,1,0
545287200,545286620,45936231,42.3585499,-71.08724959999999,3.7375765,-3.374973,5.2242026,-5.0257313e-05,0.00017889676,0.0,0.030781452,-0.024879785,-0.0057277484,-0.025846064,-0.00027487415,-0.058527347,0.14861168,-0.026442422,-0.021821864,-0.021355122,2.5803726,0.053713392,5.8792515,0.1,0.59521973,0.45347613,0.19762607,0.1254858,inf,inf,inf,inf,1,1,1,1,2,0,2,1,4,0,1,1,1,0
545784871,545784351,45936231,42.3585499,-71.08724959999999,3.7246149,-3.3937438,5.221432,-5.0257313e-05,0.00017889676,0.0,0.018798731,-0.0266959,-0.0073864516,-0.020036494,-0.00027487415,-0.058527347,0.14861168,-0.02167949,0.041106563,0.008558569,2.57974,0.053713392,5.8792515,0.101463795,0.5887012,0.45481884,0.1966235,0.12571251,inf,inf,inf,inf,1,1,1,1,2,0,2,1,4,0,1,1,1,0
546292725,546292036,45936231,42.3585499,-71.08724959999999,3.7327125,-3.405961,5.201522,-5.0257313e-05,0.00017889676,0.0,0.023516782,-0.020945549,-0.013722706,-0.034443755,-0.00027487415,-0.058527347,0.14861168,-0.007460619,0.019528244,-0.071124464,2.5792933,0.053713392,5.8792515,0.1,0.6031784,0.4551354,0.2016411,0.12648644,inf,inf,inf,inf,1,1,1,1,2,0,2,1,4,0,1,1,1,0
546790335,546789769,45936231,42.3585499,-71.08724959999999,3.7444003,-3.389706,5.1939163,-5.0257313e-05,0.00017889676,0.0,0.023464704,-0.009262789,-0.011989159,-0.027023854,-0.00027487415,-0.058527347,0.14861168,0.037624918,-0.092400275,-0.013114428,2.5791082,0.053713392,5.8792515,0.10769606,0.59820616,0.4570622,0.20070145,0.12681483,inf,inf,inf,inf,1,1,1,1,2,0,2,1,4,0,1,1,1,0
547288095,547287498,45936231,42.3585499,-71.08724959999999,3.7866526,-3.3519394,5.1996684,-5.0257313e-05,0.00017889676,0.0,0.03556441,0.013832194,0.0051874598,0.0027434123,-0.00027487415,-0.058527347,0.14861168,0.023867352,-0.04341459,-0.032614194,2.5786247,0.053713392,5.8792515,0.107990265,0.6152448,0.46134654,0.20724116,0.128333,inf,inf,inf,inf,1,1,1,1,2,0,2,1,4,0,1,1,1,0
547785778,547785228,45936231,42.3585499,-71.08724959999999,3.8139892,-3.3169086,5.2036,-5.0257313e-05,0.00017889676,0.0,0.040200092,0.031024659,0.0059355535,0.0054547046,-0.00027487415,-0.058527347,0.14861168,0.01920638,0.04745108,-0.14287953,2.5783644,0.053713392,5.8792515,0.10519934,0.6067968,0.46205002,0.20323485,0.12795505,inf,inf,inf,inf,1,1,1,1,2,0,2,1,4,0,1,1,1,0
548283654,548282959,45936231,42.3585499,-71.08724959999999,3.8433888,-3.3052402,5.2136617,-5.0257313e-05,0.00017889676,0.0,0.04257182,0.034176614,0.011752366,0.016262647,-0.00027487415,-0.058527347,0.14861168,0.017428616,0.09648496,0.17132404,2.578604,0.053713392,5.8792515,0.10189724,0.6180171,0.4601754,0.20508611,0.12776287,inf,inf,inf,inf,1,1,1,1,2,0,2,1,4,0,1,1,1,0
548791238,548790645,45936231,42.3585499,-71.08724959999999,3.9196036,-3.2592082,5.2336144,-5.0257313e-05,0.00017889676,0.0,0.0634371,0.049189154,0.019980893,0.02930527,-0.00027487415,-0.058527347,0.14861168,-0.00784541,0.0068864836,-0.0013566676,2.578322,0.053713392,5.8792515,0.1,0.6135529,0.4624927,0.2038593,0.12799059,inf,inf,inf,inf,1,1,1,1,2,0,2,1,4,0,1,1,1,0
549288994,549288376,45936231,42.3585499,-71.08724959999999,3.9402595,-3.232085,5.2488685,-5.0257313e-05,0.00017889676,0.0,0.057345208,0.056660242,0.022090452,0.029134326,-0.00027487415,-0.058527347,0.14861168,-0.0021363192,0.02637184,0.029859575,2.5782561,0.053713392,5.8792515,0.1,0.63159233,0.4665343,0.21048383,0.12935664,inf,inf,inf,inf,1,1,1,1,2,0,2,1,4,0,1,1,1,0
549786721,549786107,45936231,42.3585499,-71.08724959999999,3.9492393,-3.2307112,5.262121,-5.0257313e-05,0.00017889676,0.0,0.046017565,0.0540601,0.030137133,0.032562476,-0.00027487415,-0.058527347,0.14861168,0.011802738,0.019615987,0.002802005,2.5783901,0.053713392,5.8792515,0.1,0.6114582,0.46319783,0.19819972,0.12701458,inf,inf,inf,inf,1,1,1,1,2,0,2,1,4,0,1,1,1,0
550294462,550293793,45936231,42.3585499,-71.08724959999999,4.005656,-3.251176,5.258935,-5.0257313e-05,0.00017889676,0.0,0.057210315,0.040214617,0.026640499,0.0136227915,-0.00027487415,-0.058527347,0.14861168,-0.015990218,0.009138266,0.003126106,2.5782545,0.053713392,5.8792515,0.1,0.6212774,0.46119174,0.20014925,0.1267542,inf,inf,inf,inf,1,1,1,1,2,0,2,1,4,0,1,1,1,0
550792150,550791524,45936231,42.3585499,-71.08724959999999,4.0167794,-3.240971,5.2541714,-5.0257313e-05,0.00017889676,0.0,0.04418909,0.04361793,0.036170963,0.0121737635,-0.00027487415,-0.058527347,0.14861168,0.013725519,0.009182031,0.030082628,2.5779269,0.053713392,5.8792515,0.1,0.6011009,0.45733306,0.18947403,0.124420404,inf,inf,inf,inf,1,1,1,1,2,0,2,1,4,0,1,1,1,0
551289883,551289255,45936231,42.3585499,-71.08724959999999,4.024909,-3.2459068,5.2355394,-5.0257313e-05,0.00017889676,0.0,0.039930537,0.035373706,0.028102368,-0.013560015,-0.00027487415,-0.058527347,0.14861168,-0.01027968,-0.0037422732,0.0074659153,2.5779212,0.053713392,5.8792515,0.1,0.6076021,0.45794365,0.19169153,0.12464163,inf,inf,inf,inf,1,1,1,1,2,0,2,1,4,0,1,1,1,0
551787508,551786987,45936231,42.3585499,-71.08724959999999,4.04621,-3.260104,5.2141547,-5.0257313e-05,0.00017889676,0.0,0.03856303,0.025993053,0.021689972,-0.028728437,-0.00027487415,-0.058527347,0.14861168,-0.034097005,-0.010585242,0.070840806,2.5778756,0.053713392,5.8792515,0.1,0.5907691,0.45504817,0.18503089,0.1230746,inf,inf,inf,inf,1,1,1,1,2,0,2,1,4,0,1,1,1,0
552285295,552284718,45936231,42.3585499,-71.08724959999999,4.0930033,-3.2739384,5.2003355,-5.0257313e-05,0.00017889676,0.0,0.04374165,0.022570552,0.018736927,-0.03132316,-0.00027487415,-0.058527347,0.14861168,0.0021407483,0.017730858,0.005988732,2.5776687,0.053713392,5.8792515,0.1,0.6011286,0.45356113,0.1910235,0.12379154,inf,inf,inf,inf,1,1,1,1,2,0,2,1,4,0,1,1,1,0
552792994,552792404,45936231,42.3585499,-71.08724959999999,4.105725,-3.2864792,5.185441,-5.0257313e-05,0.00017889676,0.0,0.034834195,0.018822514,0.01967439,-0.02902579,-0.00027487415,-0.058527347,0.14861168,-0.005810771,0.003200268,-0.016255993,2.5778008,0.053713392,5.8792515,0.1,0.5822423,0.45009074,0.18173534,0.12168098,inf,inf,inf,inf,1,1,1,1,2,0,2,1,4,0,1,1,1,0
553290696,553290135,45936231,42.3585499,-71.08724959999999,4.123973,-3.3088138,5.1894975,-5.0257313e-05,0.00017889676,0.0,0.031658016,0.0136908535,0.02852794,-0.0070527336,-0.00027487415,-0.058527347,0.14861168,-0.00074864214,-0.016332421,-0.07996726,2.5777247,0.053713392,5.8792515,0.10177708,0.58633286,0.45010296,0.18346944,0.12187039,inf,inf,inf,inf,1,1,1,1,2,0,2,1,4,0,1,1,1,0
553788476,553787867,45936231,42.3585499,-71.08724959999999,4.162719,-3.361038,5.206116,-5.0257313e-05,0.00017889676,0.0,0.041501526,-0.0073500783,0.03391587,0.014085795,-0.00027487415,-0.058527347,0.14861168,-0.0142070055,-0.0049521946,-0.0054857307,2.5776052,0.053713392,5.8792515,0.1,0.56742465,0.44577172,0.17590328,0.11985005,inf,inf,inf,inf,1,1,1,1,2,0,2,1,4,0,1,1,1,0
554286127,554285598,45936231,42.3585499,-71.08724959999999,4.1619477,-3.3953938,5.2009144,-5.0257313e-05,0.00017889676,0.0,0.03137623,-0.016151184,0.029044876,0.0005581433,-0.00027487415,-0.058527347,0.14861168,0.02346483,0.008028307,0.052506972,2.5776412,0.053713392,5.8792515,0.1,0.5741002,0.44365844,0.18074949,0.12047064,inf,inf,inf,inf,1,1,1,1,2,0,2,1,4,0,1,1,1,0
554793864,554793284,45936231,42.3585499,-71.08724959999999,4.1468987,-3.4078798,5.1874576,-5.0257313e-05,0.00017889676,0.0,0.013763741,-0.013009529,0.034811314,-0.00468407,-0.00027487415,-0.058527347,0.14861168,0.00067839795,-0.013718742,-0.05163574,2.5777302,0.053713392,5.8792515,0.1,0.5636146,0.44372278,0.1793969,0.120420046,inf,inf,inf,inf,1,1,1,1,2,0,2,1,4,0,1,1,1,0
555291708,555291016,45936231,42.3585499,-71.08724959999999,4.0915947,-3.3439934,5.1698437,-5.0257313e-05,0.00017889676,0.0,-0.008011413,0.018110579,0.026305942,-0.021489289,-0.00027487415,-0.058527347,0.14861168,0.0005699803,0.019235821,-0.098327994,2.5773664,0.053713392,5.8792515,0.1,0.5727891,0.44644904,0.18539946,0.121974036,inf,inf,inf,inf,1,1,1,1,2,0,2,1,4,0,1,1,1,0
555789378,555788748,45936231,42.3585499,-71.08724959999999,4.0589275,-3.33742,5.150507,-5.0257313e-05,0.00017889676,0.0,-0.023034811,0.01871928,0.028176738,-0.02598345,-0.00027487415,-0.058527347,0.14861168,-0.027271934,0.012024676,0.014530408,2.5772033,0.053713392,5.8792515,0.1,0.5512218,0.43738717,0.17311378,0.118487775,inf,inf,inf,inf,1,1,1,1,2,0,2,1,4,0,1,1,1,0
556287226,556286479,45936231,42.3585499,-71.08724959999999,4.040596,-3.3176038,5.128769,-5.0257313e-05,0.00017889676,0.0,-0.030803947,0.026929935,0.020786624,-0.036138922,-0.00027487415,-0.058527347,0.14861168,-0.006810292,0.0047876947,0.031041458,2.5772762,0.053713392,5.8792515,0.1,0.56273496,0.44152007,0.18232878,0.12091266,inf,inf,inf,inf,1,1,1,1,2,0,2,1,4,0,1,1,1,0
556784759,556784211,45936231,42.3585499,-71.08724959999999,4.062973,-3.3164034,5.1166487,-5.0257313e-05,0.00017889676,0.0,-0.015409511,0.02610631,0.012742363,-0.036131654,-0.00027487415,-0.058527347,0.14861168,0.023928389,-0.0022603977,0.04113275,2.577025,0.053713392,5.8792515,0.10360241,0.5495892,0.44006565,0.17772076,0.12004177,inf,inf,inf,inf,1,1,1,1,2,0,2,1,4,0,1,1,1,0
557292449,557291898,45936231,42.3585499,-71.08724959999999,4.09144,-3.3158853,5.0970535,-5.0257313e-05,0.00017889676,0.0,-0.002886691,0.022482017,0.0046573826,-0.043981224,-0.00027487415,-0.058527347,0.14861168,-0.027994925,0.016271804,0.044992026,2.5766068,0.053713392,5.8792515,0.10220146,0.567885,0.44712925,0.19046009,0.1234812,inf,inf,inf,inf,1,1,1,1,2,0,2,1,4,0,1,1,1,0
557790343,557789629,45936231,42.3585499,-71.08724959999999,4.1076965,-3.3227165,5.073568,-5.0257313e-05,0.00017889676,0.0,-0.0026969914,0.018481206,0.00544193,-0.042967454,-0.00027487415,-0.058527347,0.14861168,-0.015770141,-0.010702717,0.035124533,2.5765889,0.053713392,5.8792515,0.10094881,0.56248,0.44539568,0.1906123,0.12358016,inf,inf,inf,inf,1,1,1,1,2,0,2,1,4,0,1,1,1,0
558287901,558287361,45936231,42.3585499,-71.08724959999999,4.12932,-3.3184867,5.0663505,-5.0257313e-05,0.00017889676,0.0,-0.0019427281,0.019851374,0.0043161158,-0.03108698,-0.00027487415,-0.058527347,0.14861168,-0.004237636,-0.018254574,0.032920945,2.5766175,0.053713392,5.8792515,0.11105585,0.57681686,0.44962233,0.19676207,0.12525946,inf,inf,inf,inf,1,1,1,1,2,0,2,1,4,0,1,1,1,0
558785624,558785093,45936231,42.3585499,-71.08724959999999,4.1625104,-3.2984796,5.0740895,-5.0257313e-05,0.00017889676,0.0,0.0077907336,0.02455009,0.0102128135,-0.010391728,-0.00027487415,-0.058527347,0.14861168,0.001416533,0.0011600507,-0.057584077,2.5765834,0.053713392,5.8792515,0.10302782,0.5648586,0.44913912,0.19053626,0.12434671,inf,inf,inf,inf,1,1,1,1,2,0,2,1,4,0,1,1,1,0
559283359,559282825,45936231,42.3585499,-71.08724959999999,4.1753883,-3.3402424,5.0654483,-5.0257313e-05,0.00017889676,0.0,0.010546899,0.00015669502,0.0060381037,-0.017721472,-0.00027487415,-0.058527347,0.14861168,-0.035905704,-0.018819638,0.0009913805,2.5766625,0.053713392,5.8792515,0.1,0.5757877,0.4520518,0.19402386,0.12526484,inf,inf,inf,inf,1,1,1,1,2,0,2,1,4,0,1,1,1,0
559791229,559790512,45936231,42.3585499,-71.08724959999999,4.182719,-3.3471875,5.0633073,-5.0257313e-05,0.00017889676,0.0,0.009639492,-0.0026197666,0.004977071,-0.012164162,-0.00027487415,-0.058527347,0.14861168,-0.038987834,0.0021070794,0.14276424,2.5764384,0.053713392,5.8792515,0.10974836,0.5652532,0.44863623,0.18911155,0.12402429,inf,inf,inf,inf,1,1,1,1,2,0,2,1,4,0,1,1,1,0
560288859,560288244,45936231,42.3585499,-71.08724959999999,4.1923256,-3.3308923,5.0766554,-5.0257313e-05,0.00017889676,0.0,0.011406819,0.0038469515,0.011067408,0.0075557926,-0.00027487415,-0.058527347,0.14861168,-0.0092281755,-0.013042278,0.049969554,2.576019,0.053713392,5.8792515,0.10088062,0.5781248,0.45209035,0.19444692,0.125285,inf,inf,inf,inf,1,1,1,1,2,0,2,1,4,0,1,1,1,0
560786531,560785977,45936231,42.3585499,-71.08724959999999,4.212639,-3.3322906,5.079363,-5.0257313e-05,0.00017889676,0.0,0.022409854,-0.0016897302,0.0037389316,-0.0025037737,-0.00027487415,-0.058527347,0.14861168,0.0120665375,-0.001509026,0.030331835,2.5756092,0.053713392,5.8792515,0.10025406,0.56911546,0.45242885,0.19106758,0.12484891,inf,inf,inf,inf,1,1,1,1,2,0,2,1,4,0,1,1,1,0
561294233,561293663,45936231,42.3585499,-71.08724959999999,4.2321744,-3.3262913,5.0829196,-5.0257313e-05,0.00017889676,0.0,0.02918454,-0.005190976,0.011546483,0.005706993,-0.00027487415,-0.058527347,0.14861168,-0.008813255,-0.022679819,0.060559347,2.5754101,0.053713392,5.8792515,0.10072756,0.5845752,0.4570453,0.19732337,0.12638345,inf,inf,inf,inf,1,1,1,1,2,0,2,1,4,0,1,1,1,0
561791977,561791396,45936231,42.3585499,-71.08724959999999,4.209579,-3.3271654,5.0908804,-5.0257313e-05,0.00017889676,0.0,0.020531867,-0.009955312,0.010564862,0.007817317,-0.00027487415,-0.058527347,0.14861168,-0.011271524,-0.007233793,0.0017021786,2.5747323,0.053713392,5.8792515,0.11155605,0.5737045,0.45283133,0.19203693,0.12497344,inf,inf,inf,inf,1,1,1,1,2,0,2,1,4,0,1,1,1,0
562289667,562289128,45936231,42.3585499,-71.08724959999999,4.1894774,-3.2949584,5.112929,-5.0257313e-05,0.00017889676,0.0,0.014046116,-4.5126944e-06,0.03275429,0.036280286,-0.00027487415,-0.058527347,0.14861168,-0.023838995,0.014028982,0.04112676,2.5743093,0.053713392,5.8792515,0.1,0.57888156,0.45293337,0.19078131,0.12452034,inf,inf,inf,inf,1,1,1,1,2,0,2,1,4,0,1,1,1,0
562787434,562786860,45936231,42.3585499,-71.08724959999999,4.186787,-3.2518055,5.11556,-5.0257313e-05,0.00017889676,0.0,0.0166786,0.011059154,0.029310435,0.021230623,-0.00027487415,-0.058527347,0.14861168,-0.035699964,0.09504967,-0.30013588,2.5753672,0.053713392,5.8792515,0.1,0.5713824,0.4534879,0.18899271,0.12434617,inf,inf,inf,inf,1,1,1,1,2,0,2,1,4,0,1,1,1,0
563285204,563284593,45936231,42.3585499,-71.08724959999999,4.167755,-3.2247844,5.108975,-5.0257313e-05,0.00017889676,0.0,0.0093285935,0.011734584,0.024426648,0.0036196632,-0.00027487415,-0.058527347,0.14861168,-0.0039438168,-0.039918095,0.031696826,2.5769372,0.053713392,5.8792515,0.1,0.585358,0.45696148,0.19512907,0.12571658,inf,inf,inf,inf,1,1,1,1,2,0,2,1,4,0,1,1,1,0
563792849,563792280,45936231,42.3585499,-71.08724959999999,4.145743,-3.19385,5.1099887,-5.0257313e-05,0.00017889676,0.0,0.0072929915,0.013379122,0.025142524,0.004504453,-0.00027487415,-0.058527347,0.14861168,0.0039214347,0.0148676615,0.00556098,2.578291,0.053713392,5.8792515,0.1,0.5768837,0.45398003,0.19238551,0.12491298,inf,inf,inf,inf,1,1,1,1,2,0,2,1,4,0,1,1,1,0
564290731,564290012,45936231,42.3585499,-71.08724959999999,4.1077256,-3.1645746,5.12366,-5.0257313e-05,0.00017889676,0.0,0.0011154544,0.0117174685,0.022660805,0.013014928,-0.00027487415,-0.058527347,0.14861168,-0.0017592362,-0.024790982,0.053899933,2.579567,0.053713392,5.8792515,0.102295876,0.58550704,0.455296,0.19406377,0.12518461,inf,inf,inf,inf,1,1,1,1,2,0,2,1,4,0,1,1,1,0
564788300,564787745,45936231,42.3585499,-71.08724959999999,4.0837746,-3.168512,5.1273227,-5.0257313e-05,0.00017889676,0.0,0.009596748,-0.005618544,0.024649538,0.011775242,-0.00027487415,-0.058527347,0.14861168,-0.032188874,0.0030386252,0.012921741,2.5808108,0.053713392,5.8792515,0.1,0.58074707,0.457034,0.19452545,0.1256545,inf,inf,inf,inf,1,1,1,1,2,0,2,1,4,0,1,1,1,0
565286014,565285478,45936231,42.3585499,-71.08724959999999,4.0266333,-3.1525276,5.13326,-5.0257313e-05,0.00017889676,0.0,-0.0048304875,-0.007309493,0.042150687,0.024254002,-0.00027487415,-0.058527347,0.14861168,-0.00649026,-0.028032506,-0.014397839,2.5821488,0.053713392,5.8792515,0.1,0.5992645,0.46178153,0.20303784,0.12760432,inf,inf,inf,inf,1,1,1,1,2,0,2,1,4,0,1,1,1,0
565783754,565783210,45936231,42.3585499,-71.08724959999999,3.9515574,-3.1353173,5.136029,-5.0257313e-05,0.00017889676,0.0,-0.014243388,-0.011241447,0.036262013,0.013973261,-0.00027487415,-0.058527347,0.14861168,0.0031895547,0.03061343,0.15135479,2.5835357,0.053713392,5.8792515,0.1,0.5850601,0.45606223,0.19455644,0.12551346,inf,inf,inf,inf,1,1,1,1,2,0,2,1,4,0,1,1,1,0
566291418,566290897,45936231,42.3585499,-71.08724959999999,3.8736904,-3.111393,5.145754,-5.0257313e-05,0.00017889676,0.0,-0.025294721,-0.01300335,0.035724513,0.016059823,-0.00027487415,-0.058527347,0.14861168,0.009665011,-0.06900928,0.026587876,2.584644,0.053713392,5.8792515,0.1,0.5966522,0.45858654,0.19715932,0.12609728,inf,inf,inf,inf,1,1,1,1,2,0,2,1,4,0,1,1,1,0
566789251,566788630,45936231,42.3585499,-71.08724959999999,3.795829,-3.050673,5.146219,-5.0257313e-05,0.00017889676,0.0,-0.041617177,0.006601947,0.034971897,0.010196755,-0.00027487415,-0.058527347,0.14861168,-0.011649278,-0.0008711482,-0.016128337,2.5858371,0.053713392,5.8792515,0.1,0.5921308,0.4600425,0.19706437,0.12640966,inf,inf,inf,inf,1,1,1,1,2,0,2,1,4,0,1,1,1,0
567286981,567286362,45936231,42.3585499,-71.08724959999999,3.763297,-2.9561276,5.156406,-5.0257313e-05,0.00017889676,0.0,-0.038799092,0.036445886,0.040003743,0.016603999,-0.00027487415,-0.058527347,0.14861168,0.0002446595,-0.09052306,-0.3199457,2.5871468,0.053713392,5.8792515,0.1,0.6084554,0.459558,0.2032448,0.12716322,inf,inf,inf,inf,1,1,1,1,2,0,2,1,4,0,1,1,1,0
567784711,567784095,45936231,42.3585499,-71.08724959999999,3.761342,-2.838095,5.175843,-5.0257313e-05,0.00017889676,0.0,-0.012372503,0.06525396,0.03645052,0.023598948,-0.00027487415,-0.058527347,0.14861168,0.02300711,0.015707683,0.063485235,2.5884032,0.053713392,5.8792515,0.10078859,0.6052416,0.46132183,0.20329477,0.12754937,inf,inf,inf,inf,1,1,1,1,2,0,2,1,4,0,1,1,1,0
568292312,568291782,45936231,42.3585499,-71.08724959999999,3.744865,-2.6994314,5.195905,-5.0257313e-05,0.00017889676,0.0,-0.00947018,0.10164105,0.054716732,0.04349365,-0.00027487415,-0.058527347,0.14861168,0.07934992,0.1325452,-0.115395315,2.5897646,0.053713392,5.8792515,0.1,0.62366104,0.46566674,0.20923987,0.12890558,inf,inf,inf,inf,1,1,1,1,2,0,2,1,4,0,1,1,1,0
568790143,568789515,45936231,42.3585499,-71.08724959999999,3.6593251,-2.6520593,5.208723,-5.0257313e-05,0.00017889676,0.0,-0.033516876,0.090795845,0.05221828,0.034602214,-0.00027487415,-0.058527347,0.14861168,0.0023728574,0.004246039,0.0011425779,2.5911167,0.053713392,5.8792515,0.1,0.6208684,0.46746638,0.20873724,0.1292144,inf,inf,inf,inf,1,1,1,1,2,0,2,1,4,0,1,1,1,0
569287937,569287248,45936231,42.3585499,-71.08724959999999,3.570967,-2.6550193,5.2225842,-5.0257313e-05,0.00017889676,0.0,-0.04890769,0.06578209,0.06138576,0.039346967,-0.00027487415,-0.058527347,0.14861168,-0.008783034,-0.013140283,-0.09620456,2.5921414,0.053713392,5.8792515,0.1,0.6386263,0.46664706,0.21380803,0.12962976,inf,inf,inf,inf,1,1,1,1,2,0,2,1,4,0,1,1,1,0
569785593,569784980,45936231,42.3585499,-71.08724959999999,3.5607367,-2.6548233,5.239045,-5.0257313e-05,0.00017889676,0.0,-0.035034094,0.038758066,0.06454244,0.04074805,-0.00027487415,-0.058527347,0.14861168,0.014524269,0.06813215,0.17960696,2.593245,0.053713392,5.8792515,0.1,0.6288037,0.46649072,0.20796224,0.12887529,inf,inf,inf,inf,1,1,1,1,2,0,2,1,4,0,1,1,1,0
570293234,570292668,45936231,42.3585499,-71.08724959999999,3.525943,-2.6011908,5.2511387,-5.0257313e-05,0.00017889676,0.0,-0.035658136,0.043238495,0.06477464,0.03320366,-0.00027487415,-0.058527347,0.14861168,-0.016455105,0.020404771,0.009841242,2.594613,0.053713392,5.8792515,0.1,0.6511296,0.47163898,0.21622945,0.13058427,inf,inf,inf,inf,1,1,1,1,2,0,2,1,4,0,1,1,1,0
570790987,570790400,45936231,42.3585499,-71.08724959999999,3.4914129,-2.574871,5.2366285,-5.0257313e-05,0.00017889676,0.0,-0.026659569,0.03100274,0.050823946,-0.0033243787,-0.00027487415,-0.058527347,0.14861168,0.03253686,-0.0069319746,0.050201587,2.595675,0.053713392,5.8792515,0.1,0.65460753,0.4753252,0.21990307,0.13173793,inf,inf,inf,inf,1,1,1,1,2,0,2,1,4,0,1,1,1,0
571288669,571288133,45936231,42.3585499,-71.08724959999999,3.5138602,-2.5207071,5.225114,-5.0257313e-05,0.00017889676,0.0,-0.0030496204,0.038061023,0.04900156,-0.009786419,-0.00027487415,-0.058527347,0.14861168,0.0703274,0.10602611,-0.09892679,2.5970159,0.053713392,5.8792515,0.1,0.67904186,0.4799814,0.2280475,0.13324997,inf,inf,inf,inf,1,1,1,1,2,0,2,1,4,0,1,1,1,0
571786390,571785866,45936231,42.3585499,-71.08724959999999,3.562762,-2.510681,5.2245607,-5.0257313e-05,0.00017889676,0.0,0.025820272,0.024188185,0.054387677,-0.00090991723,-0.00027487415,-0.058527347,0.14861168,0.015002048,-0.039459687,-0.025439754,2.5979989,0.053713392,5.8792515,0.1,0.67891115,0.47831663,0.22810039,0.13309653,inf,inf,inf,inf,1,1,1,1,2,0,2,1,4,0,1,1,1,0
572294089,572293553,45936231,42.3585499,-71.08724959999999,3.5594292,-2.4937057,5.2223935,-5.0257313e-05,0.00017889676,0.0,0.027825229,0.018834453,0.049817756,-0.0049618063,-0.00027487415,-0.058527347,0.14861168,-0.009103431,-0.057381246,0.035750277,2.5990233,0.053713392,5.8792515,0.1,0.7000151,0.48247358,0.23283012,0.13400687,inf,inf,inf,inf,1,1,1,1,2,0,2,1,4,0,1,1,1,0
572791804,572791286,45936231,42.3585499,-71.08724959999999,3.5394044,-2.4708374,5.2169185,-5.0257313e-05,0.00017889676,0.0,0.02668459,0.014107158,0.050089523,-0.0060660746,-0.00027487415,-0.058527347,0.14861168,-0.029012863,-0.09873588,-0.058983777,2.6002712,0.053713392,5.8792515,0.1,0.6852334,0.4816523,0.2237481,0.13282134,inf,inf,inf,inf,1,1,1,1,2,0,2,1,4,0,1,1,1,0
573289764,573289019,45936231,42.3585499,-71.08724959999999,3.4778051,-2.4461246,5.2051425,-5.0257313e-05,0.00017889676,0.0,0.010751184,0.013119094,0.041738186,-0.018795624,-0.00027487415,-0.058527347,0.14861168,0.035069723,0.020718606,0.045914743,2.6010385,0.053713392,5.8792515,0.1,0.7089969,0.48117855,0.23191318,0.1334283,inf,inf,inf,inf,1,1,1,1,2,0,2,1,4,0,1,1,1,0
573787328,573786751,45936231,42.3585499,-71.08724959999999,3.4102082,-2.4374108,5.2015724,-5.0257313e-05,0.00017889676,0.0,-0.00447653,0.0009066564,0.043508776,-0.013982134,-0.00027487415,-0.058527347,0.14861168,-0.04627751,0.0050499276,0.012851383,2.60192,0.053713392,5.8792515,0.1,0.6825508,0.4773695,0.21721904,0.13104078,inf,inf,inf,inf,1,1,1,1,2,0,2,1,4,0,1,1,1,0
574285011,574284484,45936231,42.3585499,-71.08724959999999,3.393833,-2.419128,5.180758,-5.0257313e-05,0.00017889676,0.0,-0.00064961944,-0.006553435,0.033513367,-0.03300959,-0.00027487415,-0.058527347,0.14861168,-0.011642694,0.0636044,0.04571208,2.6010222,0.053713392,5.8792515,0.1,0.6965398,0.47929606,0.22114588,0.13155878,inf,inf,inf,inf,1,1,1,1,2,0,2,1,4,0,1,1,1,0
574792696,574792171,45936231,42.3585499,-71.08724959999999,3.3468056,-2.3989682,5.134371,-5.0257313e-05,0.00017889676,0.0,-0.009130446,-0.016556345,0.029475082,-0.059080105,-0.00027487415,-0.058527347,0.14861168,0.023667444,0.0152757745,-0.036106583,2.6021583,0.053713392,5.8792515,0.1,0.6803407,0.47848845,0.21411596,0.13052185,inf,inf,inf,inf,1,1,1,1,2,0,2,1,4,0,1,1,1,0
575290451,575289904,45936231,42.3585499,-71.08724959999999,3.331231,-2.3690236,5.096695,-5.0257313e-05,0.00017889676,0.0,-0.0062831356,-0.01576685,0.018881427,-0.07324262,-0.00027487415,-0.058527347,0.14861168,0.14052919,-0.12887359,0.1947716,2.6039107,0.053713392,5.8792515,0.1,0.6910922,0.47527787,0.21703143,0.13018815,inf,inf,inf,inf,1,1,1,1,2,0,2,1,4,0,1,1,1,0
575788262,575787636,45936231,42.3585499,-71.08724959999999,3.2989886,-2.300093,5.089074,-5.0257313e-05,0.00017889676,0.0,-0.0020452377,-0.007376169,0.028714878,-0.04146571,-0.00027487415,-0.058527347,0.14861168,-0.016905978,-0.027489549,0.44824928,2.6056066,0.053713392,5.8792515,0.10674238,0.6675658,0.47147208,0.20633951,0.12817429,inf,inf,inf,inf,1,1,1,1,2,0,2,1,4,0,1,1,1,0
576285918,576285369,45936231,42.3585499,-71.08724959999999,3.2770925,-2.2154818,5.087524,-5.0257313e-05,0.00017889676,0.0,0.0038438935,0.012881397,0.028939877,-0.024668263,-0.00027487415,-0.058527347,0.14861168,0.14390294,0.083514504,0.044030946,2.6074004,0.053713392,5.8792515,0.11887789,0.681673,0.4738941,0.21305856,0.12931365,inf,inf,inf,inf,1,1,1,1,2,0,2,1,4,0,1,1,1,0
576783644,576783102,45936231,42.3585499,-71.08724959999999,3.2294805,-2.1696792,5.100383,-5.0257313e-05,0.00017889676,0.0,-0.004463453,0.010409236,0.022946961,-0.009942624,-0.00027487415,-0.058527347,0.14861168,-0.030213213,0.06479149,-0.17185308,2.6096582,0.053713392,5.8792515,0.10540962,0.6720717,0.47431523,0.21212119,0.12939598,inf,inf,inf,inf,1,1,1,1,2,0,2,1,4,0,1,1,1,0
577291435,577290789,45936231,42.3585499,-71.08724959999999,3.1646137,-2.1482098,5.068925,-5.0257313e-05,0.00017889676,0.0,-0.021755647,0.002126178,0.010123525,-0.043052785,-0.00027487415,-0.058527347,0.14861168,-0.09379851,-0.16070785,-0.3955316,2.611271,0.053713392,5.8792515,0.1,0.6896037,0.47381678,0.21955958,0.13020395,inf,inf,inf,inf,1,1,1,1,2,0,2,1,4,0,1,1,1,0
577789155,577788521,45936231,42.3585499,-71.08724959999999,3.1465492,-2.1150248,5.0455966,-5.0257313e-05,0.00017889676,0.0,-0.016301721,0.0018595124,0.0010438045,-0.050300863,-0.00027487415,-0.058527347,0.14861168,0.01549558,-0.043183673,0.007565466,2.6128888,0.053713392,5.8792515,0.1,0.6841698,0.47537735,0.22020546,0.13071105,inf,inf,inf,inf,1,1,1,1,2,0,2,1,4,0,1,1,1,0
578286845,578286254,45936231,42.3585499,-71.08724959999999,3.1595488,-2.0087235,5.010288,-5.0257313e-05,0.00017889676,0.0,-0.00012614342,0.032897595,-0.009145456,-0.06718198,-0.00027487415,-0.058527347,0.14861168,0.02372402,-0.024137659,-0.010319221,2.6142988,0.053713392,5.8792515,0.1,0.70073605,0.47811776,0.22594497,0.1317433,inf,inf,inf,inf,1,1,1,1,2,0,2,1,4,0,1,1,1,0
578794686,578793941,45936231,42.3585499,-71.08724959999999,3.1605897,-1.9611177,4.9552107,-5.0257313e-05,0.00017889676,0.0,0.006887004,0.032766193,-0.016702063,-0.08953804,-0.00027487415,-0.058527347,0.14861168,0.019455638,0.009679756,0.042708345,2.6162155,0.053713392,5.8792515,0.1,0.69101495,0.47467464,0.22189362,0.1308869,inf,inf,inf,inf,1,1,1,1,2,0,2,1,4,0,1,1,1,0
579292234,579291673,45936231,42.3585499,-71.08724959999999,3.1237924,-1.9260712,4.9206777,-5.0257313e-05,0.00017889676,0.0,-0.0058249934,0.03129494,-0.019798005,-0.08038354,-0.00027487415,-0.058527347,0.14861168,-0.008275581,-0.0330935,-0.001995139,2.6189153,0.053713392,5.8792515,0.11234951,0.7026342,0.4760732,0.22375813,0.13120452,inf,inf,inf,inf,1,1,1,1,2,0,2,1,4,0,1,1,1,0
579790019,579789406,45936231,42.3585499,-71.08724959999999,3.0740583,-1.8974849,4.8950233,-5.0257313e-05,0.00017889676,0.0,-0.0148905665,0.024897542,-0.02927353,-0.077855624,-0.00027487415,-0.058527347,0.14861168,-0.011265,-0.16196276,-0.12353731,2.621142,0.053713392,5.8792515,0.11315441,0.6985889,0.47784847,0.22424217,0.13168813,inf,inf,inf,inf,1,1,1,1,2,0,2,1,4,0,1,1,1,0
580287679,580287138,45936231,42.3585499,-71.08724959999999,3.0156865,-1.9029876,4.887645,-5.0257313e-05,0.00017889676,0.0,-0.032815997,0.0075546447,-0.0020243195,-0.032702852,-0.00027487415,-0.058527347,0.14861168,-0.008211064,0.0070501175,0.10269173,2.6245313,0.053713392,5.8792515,0.11594391,0.72158736,0.48188657,0.2330049,0.13321118,inf,inf,inf,inf,1,1,1,1,2,0,2,1,4,0,1,1,1,0
580785391,580784870,45936231,42.3585499,-71.08724959999999,2.9785607,-1.8709729,4.9033947,-5.0257313e-05,0.00017889676,0.0,-0.03591942,0.00788519,0.01083183,0.0042894664,-0.00027487415,-0.058527347,0.14861168,-0.03527063,-0.031306177,-0.070127465,2.6273327,0.053713392,5.8792515,0.115722656,0.70942205,0.48143667,0.22622171,0.13245907,inf,inf,inf,inf,1,1,1,1,2,0,2,1,4,0,1,1,1,0
581293422,581292557,45936231,42.3585499,-71.08724959999999,3.0147755,-1.8150321,4.9265313,-5.0257313e-05,0.00017889676,0.0,-0.0052253786,0.014389387,0.00929676,0.018020222,-0.00027487415,-0.058527347,0.14861168,0.0031688386,-0.012815067,0.016445685,2.6303926,0.053713392,5.8792515,0.12029171,0.7089275,0.47989604,0.2271647,0.13243148,inf,inf,inf,inf,1,1,1,1,2,0,2,1,4,0,1,1,1,0
581790815,581790289,45936231,42.3585499,-71.08724959999999,2.9147058,-1.6848354,4.958074,-5.0257313e-05,0.00017889676,0.0,-0.045988716,0.051088344,0.023514995,0.047416743,-0.00027487415,-0.058527347,0.14861168,0.038032148,0.0555368,0.07805781,2.6328497,0.053713392,5.8792515,0.114084244,0.7252065,0.48216277,0.23040804,0.132968,inf,inf,inf,inf,1,1,1,1,2,0,2,1,4,0,1,1,1,0
582288786,582288022,45936231,42.3585499,-71.08724959999999,2.8679237,-1.5720774,4.9970713,-5.0257313e-05,0.00017889676,0.0,-0.052772813,0.07635108,0.022899058,0.055014003,-0.00027487415,-0.058527347,0.14861168,0.025035165,0.02590548,-0.10476568,2.6339235,0.053713392,5.8792515,0.10369825,0.73469436,0.48271897,0.22969396,0.13275237,inf,inf,inf,inf,1,1,1,1,2,0,2,1,4,0,1,1,1,0
582786308,582785754,45936231,42.3585499,-71.08724959999999,2.8124454,-1.5776303,5.026074,-5.0257313e-05,0.00017889676,0.0,-0.06170109,0.053639434,0.027775401,0.054660935,-0.00027487415,-0.058527347,0.14861168,0.007099642,0.021344703,0.02796555,2.636636,0.053713392,5.8792515,0.1,0.720128,0.48155367,0.22323121,0.13184044,inf,inf,inf,inf,1,1,1,1,2,0,2,1,4,0,1,1,1,0
583284037,583283486,45936231,42.3585499,-71.08724959999999,2.772364,-1.6106297,5.0269246,-5.0257313e-05,0.00017889676,0.0,-0.06174984,0.028522108,0.016080918,0.021285763,-0.00027487415,-0.058527347,0.14861168,-0.02022047,-0.029922513,-0.035557456,2.6379597,0.053713392,5.8792515,0.1,0.7390869,0.48012507,0.23005967,0.1322667,inf,inf,inf,inf,1,1,1,1,2,0,2,1,4,0,1,1,1,0
583791777,583791172,45936231,42.3585499,-71.08724959999999,2.7279453,-1.6426518,5.001678,-5.0257313e-05,0.00017889676,0.0,-0.063546315,0.011834867,0.016973479,-0.0055713607,-0.00027487415,-0.058527347,0.14861168,-0.010239988,0.036029603,0.055545136,2.6396804,0.053713392,5.8792515,0.1,0.721207,0.47906327,0.22111054,0.13109177,inf,inf,inf,inf,1,1,1,1,2,0,2,1,4,0,1,1,1,0
584289431,584288904,45936231,42.3585499,-71.08724959999999,2.6504452,-1.6712242,4.980482,-5.0257313e-05,0.00017889676,0.0,-0.08246156,-0.0040078573,0.014361353,-0.021671042,-0.00027487415,-0.058527347,0.14861168,0.016930258,0.015587869,0.086913325,2.6412416,0.053713392,5.8792515,0.1,0.7381057,0.48179126,0.2276265,0.13212837,inf,inf,inf,inf,1,1,1,1,2,0,2,1,4,0,1,1,1,0
584787244,584786636,45936231,42.3585499,-71.08724959999999,2.6056297,-1.715184,4.958696,-5.0257313e-05,0.00017889676,0.0,-0.078048415,-0.021893367,0.018546218,-0.025594695,-0.00027487415,-0.058527347,0.14861168,0.00292067,-0.031133775,0.024858838,2.642735,0.053713392,5.8792515,0.1,0.71338165,0.47370824,0.21527848,0.12943517,inf,inf,inf,inf,1,1,1,1,2,0,2,1,4,0,1,1,1,0
585284944,585284368,45936231,42.3585499,-71.08724959999999,2.53243,-1.7721068,4.94935,-5.0257313e-05,0.00017889676,0.0,-0.09044402,-0.04304723,0.02036563,-0.019847786,-0.00027487415,-0.058527347,0.14861168,-0.014565651,-0.0039529577,0.031697575,2.6445837,0.053713392,5.8792515,0.1,0.7317653,0.47711343,0.22411719,0.13093421,inf,inf,inf,inf,1,1,1,1,2,0,2,1,4,0,1,1,1,0
585792637,585792054,45936231,42.3585499,-71.08724959999999,2.4145744,-1.8075181,4.950672,-5.0257313e-05,0.00017889676,0.0,-0.12428723,-0.05367424,0.03061911,-0.0012002375,-0.00027487415,-0.058527347,0.14861168,-0.024207624,0.0026779107,0.02263055,2.6464932,0.053713392,5.8792515,0.10451031,0.7252583,0.47925705,0.22463459,0.13145027,inf,inf,inf,inf,1,1,1,1,2,0,2,1,4,0,1,1,1,0
586290463,586289786,45936231,42.3585499,-71.08724959999999,2.3189695,-1.8230318,4.962315,-5.0257313e-05,0.00017889676,0.0,-0.14030993,-0.054526933,0.029257549,0.008100305,-0.00027487415,-0.058527347,0.14861168,0.008223715,-0.029847933,-0.07798446,2.648406,0.053713392,5.8792515,0.10637474,0.74439657,0.48281226,0.23286876,0.1328411,inf,inf,inf,inf,1,1,1,1,2,0,2,1,4,0,1,1,1,0
586788206,586787517,45936231,42.3585499,-71.08724959999999,2.280903,-1.8021414,4.9865804,-5.0257313e-05,0.00017889676,0.0,-0.13049638,-0.040598206,0.027552411,0.023331815,-0.00027487415,-0.058527347,0.14861168,-0.014536942,-0.059135433,-0.06744109,2.6505797,0.053713392,5.8792515,0.10506439,0.72547174,0.47687972,0.22432382,0.13106845,inf,inf,inf,inf,1,1,1,1,2,0,2,1,4,0,1,1,1,0
587285853,587285249,45936231,42.3585499,-71.08724959999999,2.288908,-1.7555588,5.009025,-5.0257313e-05,0.00017889676,0.0,-0.10421567,-0.020024318,0.020047888,0.024033848,-0.00027487415,-0.058527347,0.14861168,-0.02949191,-0.0006397087,0.0014591938,2.6525586,0.053713392,5.8792515,0.1,0.7449274,0.4804393,0.23286384,0.13247007,inf,inf,inf,inf,1,1,1,1,2,0,2,1,4,0,1,1,1,0
587793490,587792935,45936231,42.3585499,-71.08724959999999,2.331747,-1.7207491,5.030907,-5.0257313e-05,0.00017889676,0.0,-0.07389036,-0.004855479,0.021443823,0.03374827,-0.00027487415,-0.058527347,0.14861168,-0.009800447,0.004239614,0.0721377,2.6543736,0.053713392,5.8792515,0.112699986,0.7116914,0.47525188,0.21315618,0.12929682,inf,inf,inf,inf,1,1,1,1,2,0,2,1,4,0,1,1,1,0
588291221,588290666,45936231,42.3585499,-71.08724959999999,2.3316255,-1.7237093,5.0745206,-5.0257313e-05,0.00017889676,0.0,-0.06418258,-0.0080073485,0.02445371,0.053806167,-0.00027487415,-0.058527347,0.14861168,0.026461687,0.0055856025,-0.06470981,2.6567771,0.053713392,5.8792515,0.10342741,0.718784,0.47557682,0.2146465,0.12937461,inf,inf,inf,inf,1,1,1,1,2,0,2,1,4,0,1,1,1,0
588789080,588788397,45936231,42.3585499,-71.08724959999999,2.3316095,-1.6983078,5.094252,-5.0257313e-05,0.00017889676,0.0,-0.05034785,0.0014923696,0.031413004,0.052041028,-0.00027487415,-0.058527347,0.14861168,0.002440498,-0.0106885275,0.037030965,2.6586914,0.053713392,5.8792515,0.1,0.70574886,0.47043896,0.2114694,0.12827587,inf,inf,inf,inf,1,1,1,1,2,0,2,1,4,0,1,1,1,0
589286680,589286128,45936231,42.3585499,-71.08724959999999,2.324739,-1.6704651,5.116694,-5.0257313e-05,0.00017889676,0.0,-0.037459202,0.007833657,0.048369646,0.061685372,-0.00027487415,-0.058527347,0.14861168,-0.018301686,-0.015458213,0.01656245,2.6608484,0.053713392,5.8792515,0.1,0.71516544,0.4714583,0.21464655,0.12874332,inf,inf,inf,inf,1,1,1,1,2,0,2,1,4,0,1,1,1,0
589794373,589793814,45936231,42.3585499,-71.08724959999999,2.3314178,-1.6447662,5.132072,-5.0257313e-05,0.00017889676,0.0,-0.016416013,0.010187203,0.06631639,0.061484594,-0.00027487415,-0.058527347,0.14861168,0.02336959,-0.006336665,0.06433479,2.6628613,0.053713392,5.8792515,0.1,0.70577514,0.47226474,0.21296832,0.12877686,inf,inf,inf,inf,1,1,1,1,2,0,2,1,4,0,1,1,1,0
590292067,590291545,45936231,42.3585499,-71.08724959999999,2.3051655,-1.5997897,5.1511283,-5.0257313e-05,0.00017889676,0.0,-0.010580795,0.020944906,0.076658346,0.061801992,-0.00027487415,-0.058527347,0.14861168,0.026374409,-0.027742354,-0.05115146,2.6644125,0.053713392,5.8792515,0.1,0.7232043,0.47572985,0.22125664,0.1303293,inf,inf,inf,inf,1,1,1,1,2,0,2,1,4,0,1,1,1,0
590789823,590789276,45936231,42.3585499,-71.08724959999999,2.3153715,-1.520898,5.175124,-5.0257313e-05,0.00017889676,0.0,0.00775807,0.044635046,0.090402715,0.06772527,-0.00027487415,-0.058527347,0.14861168,0.003526416,-0.038799126,0.049242757,2.6652405,0.053713392,5.8792515,0.1,0.7262154,0.47512993,0.22784486,0.13124476,inf,inf,inf,inf,1,1,1,1,2,0,2,1,4,0,1,1,1,0
591287655,591287007,45936231,42.3585499,-71.08724959999999,2.3135657,-1.4759398,5.192599,-5.0257313e-05,0.00017889676,0.0,0.01677622,0.051870815,0.086863466,0.053830236,-0.00027487415,-0.058527347,0.14861168,-0.0031438936,0.039604057,0.15564242,2.6660829,0.053713392,5.8792515,0.1,0.7500922,0.4797208,0.23780887,0.13301398,inf,inf,inf,inf,1,1,1,1,2,0,2,1,4,0,1,1,1,0
591785284,591784737,45936231,42.3585499,-71.08724959999999,2.3060217,-1.4104024,5.192616,-5.0257313e-05,0.00017889676,0.0,0.026237167,0.06461079,0.07330247,0.022090686,-0.00027487415,-0.058527347,0.14861168,0.06552397,0.0080906125,0.0915458,2.666459,0.053713392,5.8792515,0.1,0.7329954,0.47879988,0.22874755,0.13200878,inf,inf,inf,inf,1,1,1,1,2,0,2,1,4,0,1,1,1,0
592293158,592292422,45936231,42.3585499,-71.08724959999999,2.2616684,-1.3829823,5.1737404,-5.0257313e-05,0.00017889676,0.0,0.017441884,0.058097225,0.051238928,-0.017493386,-0.00027487415,-0.058527347,0.14861168,-0.012790093,-0.029774666,0.072465725,2.6641746,0.053713392,5.8792515,0.1,0.7600511,0.48021308,0.2404232,0.13338721,inf,inf,inf,inf,1,1,1,1,2,0,2,1,4,0,1,1,1,0
592790785,592790153,45936231,42.3585499,-71.08724959999999,2.1957629,-1.3867496,5.151783,-5.0257313e-05,0.00017889676,0.0,0.00070401595,0.04430286,0.04242945,-0.032813154,-0.00027487415,-0.058527347,0.14861168,0.1438036,-0.06824757,0.090793334,2.6693783,0.053713392,5.8792515,0.1,0.7458871,0.4801012,0.23378561,0.13273692,inf,inf,inf,inf,1,1,1,1,2,0,2,1,4,0,1,1,1,0
593288430,593287883,45936231,42.3585499,-71.08724959999999,2.1205118,-1.4372412,5.1305614,-5.0257313e-05,0.00017889676,0.0,-0.018903626,0.015380836,0.02794664,-0.043567877,-0.00027487415,-0.058527347,0.14861168,-0.029203335,-0.008847387,0.00045096278,2.6701322,0.053713392,5.8792515,0.1,0.7728876,0.48499545,0.24486579,0.13446797,inf,inf,inf,inf,1,1,1,1,2,0,2,1,4,0,1,1,1,0
593786155,593785614,45936231,42.3585499,-71.08724959999999,2.0607543,-1.448764,5.1197257,-5.0257313e-05,0.00017889676,0.0,-0.023568736,0.008375837,0.024137119,-0.035964437,-0.00027487415,-0.058527347,0.14861168,0.005099659,0.031750977,0.009549385,2.6729457,0.053713392,5.8792515,0.10718298,0.76193315,0.48550028,0.23901798,0.13399403,inf,inf,inf,inf,1,1,1,1,2,0,2,1,4,0,1,1,1,0
594283901,594283344,45936231,42.3585499,-71.08724959999999,1.9971529,-1.4891645,5.1061053,-5.0257313e-05,0.00017889676,0.0,-0.03899176,-0.011461337,0.038372453,-0.020431882,-0.00027487415,-0.058527347,0.14861168,0.010773987,-0.022855617,0.043603837,2.6743655,0.053713392,5.8792515,0.1,0.7902878,0.49015045,0.24946742,0.135549,inf,inf,inf,inf,1,1,1,1,2,0,2,1,4,0,1,1,1,0
594791604,594791028,45936231,42.3585499,-71.08724959999999,1.8284255,-1.5956203,5.083813,-5.0257313e-05,0.00017889676,0.0,-0.089807004,-0.05425035,0.034360904,-0.031404383,-0.00027487415,-0.058527347,0.14861168,0.02826744,-0.011687484,0.035582613,2.6759949,0.053713392,5.8792515,0.1,0.79268765,0.4892273,0.25137505,0.13560067,inf,inf,inf,inf,1,1,1,1,2,0,2,1,4,0,1,1,1,0
595289434,595288758,45936231,42.3585499,-71.08724959999999,1.7006534,-1.6499801,5.094903,-5.0257313e-05,0.00017889676,0.0,-0.11255115,-0.07002619,0.03302941,-0.010379347,-0.00027487415,-0.058527347,0.14861168,0.036502175,-0.009752965,-0.36278543,2.6774893,0.053713392,5.8792515,0.10567236,0.80747926,0.49082822,0.2521255,0.13565247,inf,inf,inf,inf,1,1,1,1,2,0,2,1,4,0,1,1,1,0
595787113,595786488,45936231,42.3585499,-71.08724959999999,1.6677326,-1.7119988,5.1123285,-5.0257313e-05,0.00017889676,0.0,-0.09832722,-0.0863409,0.04042285,0.013792782,-0.00027487415,-0.058527347,0.14861168,0.008571863,-0.041864887,-0.10874189,2.67934,0.053713392,5.8792515,0.10602856,0.7927124,0.4904639,0.24438947,0.13485363,inf,inf,inf,inf,1,1,1,1,2,0,2,1,4,0,1,1,1,0
596294811,596294172,45936231,42.3585499,-71.08724959999999,1.6963034,-1.7830913,5.11527,-5.0257313e-05,0.00017889676,0.0,-0.06773556,-0.100692034,0.033821225,0.0044480255,-0.00027487415,-0.058527347,0.14861168,0.01876474,-0.038230762,0.05070458,2.6809785,0.053713392,5.8792515,0.1,0.8123756,0.48881552,0.24869017,0.13473333,inf,inf,inf,inf,1,1,1,1,2,0,2,1,4,0,1,1,1,0
596792525,596791902,45936231,42.3585499,-71.08724959999999,1.7164339,-1.8049462,5.115463,-5.0257313e-05,0.00017889676,0.0,-0.04470577,-0.09267378,0.033402123,0.0011998173,-0.00027487415,-0.058527347,0.14861168,-0.0043187067,-0.022902828,0.031638015,2.6828463,0.053713392,5.8792515,0.1,0.79605585,0.48802704,0.24087964,0.13385963,inf,inf,inf,inf,1,1,1,1,2,0,2,1,4,0,1,1,1,0
597290222,597289631,45936231,42.3585499,-71.08724959999999,1.7069836,-1.8256783,5.120221,-5.0257313e-05,0.00017889676,0.0,-0.034379214,-0.09053147,0.037208594,0.006112895,-0.00027487415,-0.058527347,0.14861168,0.0016948108,-0.0213189,-0.045667935,2.684476,0.053713392,5.8792515,0.1,0.81152445,0.4896405,0.24420936,0.13421765,inf,inf,inf,inf,1,1,1,1,2,0,2,1,4,0,1,1,1,0
597787941,597787361,45936231,42.3585499,-71.08724959999999,1.7035273,-1.8300269,5.109171,-5.0257313e-05,0.00017889676,0.0,-0.022499574,-0.07917679,0.030784734,-0.0096537275,-0.00027487415,-0.058527347,0.14861168,0.020622525,0.027518852,0.13354288,2.686043,0.053713392,5.8792515,0.1,0.7917347,0.48783797,0.23498943,0.13301684,inf,inf,inf,inf,1,1,1,1,2,0,2,1,4,0,1,1,1,0
598285648,598285090,45936231,42.3585499,-71.08724959999999,1.6668466,-1.8333017,5.0941935,-5.0257313e-05,0.00017889676,0.0,-0.023865705,-0.07242418,0.0230224,-0.02384954,-0.00027487415,-0.058527347,0.14861168,0.00017074058,-0.016252456,-0.0050707306,2.6878052,0.053713392,5.8792515,0.1,0.81384754,0.49096283,0.2434877,0.13420208,inf,inf,inf,inf,1,1,1,1,2,0,2,1,4,0,1,1,1,0
598793368,598792774,45936231,42.3585499,-71.08724959999999,1.6789912,-1.834137,5.067798,-5.0257313e-05,0.00017889676,0.0,-0.0053683785,-0.062901996,0.026841797,-0.030672867,-0.00027487415,-0.058527347,0.14861168,0.004888159,-0.010134059,0.0046117664,2.689328,0.053713392,5.8792515,0.1,0.80369174,0.48714024,0.23958904,0.13328436,inf,inf,inf,inf,1,1,1,1,2,0,2,1,4,0,1,1,1,0
599291096,599290503,45936231,42.3585499,-71.08724959999999,1.6533018,-1.8142399,5.0656886,-5.0257313e-05,0.00017889676,0.0,-0.005123636,-0.04895307,0.03057119,-0.016278869,-0.00027487415,-0.058527347,0.14861168,0.009908191,-0.002195154,0.022570688,2.6908455,0.053713392,5.8792515,0.10145664,0.81895685,0.48870492,0.243383,0.1337572,inf,inf,inf,inf,1,1,1,1,2,0,2,1,4,0,1,1,1,0
599788791,599788232,45936231,42.3585499,-71.08724959999999,1.6071854,-1.7860007,5.0506573,-5.0257313e-05,0.00017889676,0.0,-0.010615091,-0.031195655,0.018685548,-0.031580422,-0.00027487415,-0.058527347,0.14861168,0.00096360943,0.010441015,-0.039434664,2.6924908,0.053713392,5.8792515,0.1,0.80956346,0.48917967,0.24076027,0.13366753,inf,inf,inf,inf,1,1,1,1,2,0,2,1,4,0,1,1,1,0
600286716,600285960,45936231,42.3585499,-71.08724959999999,1.5721018,-1.7339408,5.0301127,-5.0257313e-05,0.00017889676,0.0,-0.013428251,-0.008203072,0.016416872,-0.036118876,-0.00027487415,-0.058527347,0.14861168,0.026506353,0.041854322,-0.0030842084,2.6939983,0.053713392,5.8792515,0.1,0.8264575,0.4864619,0.2456774,0.1336101,inf,inf,inf,inf,1,1,1,1,2,0,2,1,4,0,1,1,1,0
600784285,600783689,45936231,42.3585499,-71.08724959999999,1.5148252,-1.7049797,5.0013566,-5.0257313e-05,0.00017889676,0.0,-0.019438189,0.0006555139,0.0034738292,-0.052137725,-0.00027487415,-0.058527347,0.14861168,-0.0055147,-0.031531624,0.01474509,2.6951587,0.053713392,5.8792515,0.1057291,0.8156311,0.48694637,0.2429191,0.13353638,inf,inf,inf,inf,1,1,1,1,2,0,2,1,4,0,1,1,1,0
601291959,601291372,45936231,42.3585499,-71.08724959999999,1.3919843,-1.6106877,4.972292,-5.0257313e-05,0.00017889676,0.0,-0.051241424,0.03240157,-0.0095812185,-0.06560565,-0.00027487415,-0.058527347,0.14861168,0.13660826,-0.06344272,-0.0743011,2.6964633,0.053713392,5.8792515,0.1,0.8336298,0.4901392,0.24855956,0.13446155,inf,inf,inf,inf,1,1,1,1,2,0,2,1,4,0,1,1,1,0
601789781,601789100,45936231,42.3585499,-71.08724959999999,1.1532975,-1.4430637,4.920878,-5.0257313e-05,0.00017889676,0.0,-0.122458436,0.08569145,-0.019083751,-0.08623504,-0.00027487415,-0.058527347,0.14861168,0.00027345063,0.063916735,0.00568598,2.6977916,0.053713392,5.8792515,0.10037327,0.82790715,0.4919238,0.24928688,0.13494039,inf,inf,inf,inf,1,1,1,1,2,0,2,1,4,0,1,1,1,0
602287441,602286828,45936231,42.3585499,-71.08724959999999,1.0098467,-1.30566,4.8968296,-5.0257313e-05,0.00017889676,0.0,-0.14842263,0.119842105,-0.027148284,-0.07578221,-0.00027487415,-0.058527347,0.14861168,0.0011922865,0.044191528,-0.037468854,2.6976423,0.053713392,5.8792515,0.11519623,0.8502113,0.49020374,0.2570158,0.13524583,inf,inf,inf,inf,1,1,1,1,2,0,2,1,4,0,1,1,1,0
602785088,602784557,45936231,42.3585499,-71.08724959999999,0.9124285,-1.1624581,4.8851013,-5.0257313e-05,0.00017889676,0.0,-0.15374,0.14980339,-0.02408684,-0.052349094,-0.00027487415,-0.058527347,0.14861168,-0.04070272,0.0060230773,0.03768887,2.6987646,0.053713392,5.8792515,0.11831379,0.8458558,0.49213502,0.25728157,0.13568306,inf,inf,inf,inf,1,1,1,1,2,0,2,1,4,0,1,1,1,0
603292793,603292239,45936231,42.3585499,-71.08724959999999,0.7999173,-1.0608767,4.8851995,-5.0257313e-05,0.00017889676,0.0,-0.16831748,0.1600832,-0.021673046,-0.0301415,-0.00027487415,-0.058527347,0.14861168,-0.025005069,0.042588435,0.031510767,2.6996481,0.053713392,5.8792515,0.111412525,0.87062526,0.49613234,0.26458228,0.13676552,inf,inf,inf,inf,1,1,1,1,2,0,2,1,4,0,1,1,1,0
603790552,603789967,45936231,42.3585499,-71.08724959999999,0.7232231,-0.9972122,4.8760076,-5.0257313e-05,0.00017889676,0.0,-0.16635655,0.15450904,-0.024560122,-0.029972835,-0.00027487415,-0.058527347,0.14861168,-0.039187152,0.069410734,-0.1609199,2.7008488,0.053713392,5.8792515,0.11323309,0.8564832,0.49138668,0.25811797,0.1355462,inf,inf,inf,inf,1,1,1,1,2,0,2,1,4,0,1,1,1,0
604288397,604287695,45936231,42.3585499,-71.08724959999999,0.66501385,-0.9663623,4.8840466,-5.0257313e-05,0.00017889676,0.0,-0.15300365,0.14422576,-0.023808619,-0.011775328,-0.00027487415,-0.058527347,0.14861168,0.056204457,0.086985596,-0.17237319,2.7005956,0.053713392,5.8792515,0.117314816,0.8732001,0.49310786,0.26101005,0.13587351,inf,inf,inf,inf,1,1,1,1,2,0,2,1,4,0,1,1,1,0
604786054,604785422,45936231,42.3585499,-71.08724959999999,0.6911221,-0.892883,4.908848,-5.0257313e-05,0.00017889676,0.0,-0.1197699,0.14285058,-0.00983262,0.024100302,-0.00027487415,-0.058527347,0.14861168,-0.0011300386,0.025412597,0.15269835,2.6985238,0.053713392,5.8792515,0.12504244,0.8425615,0.48998234,0.24448556,0.13393363,inf,inf,inf,inf,1,1,1,1,2,0,2,1,4,0,1,1,1,0
605283723,605283150,45936231,42.3585499,-71.08724959999999,0.6984677,-0.8293432,4.9270406,-5.0257313e-05,0.00017889676,0.0,-0.09370461,0.14377417,-0.005507547,0.027668409,-0.00027487415,-0.058527347,0.14861168,-0.008436948,0.051083636,0.09915391,2.7028055,0.053713392,5.8792515,0.1,0.8588826,0.49191597,0.24956521,0.13454677,inf,inf,inf,inf,1,1,1,1,2,0,2,1,4,0,1,1,1,0
605791498,605790832,45936231,42.3585499,-71.08724959999999,0.68068534,-0.73279226,4.919573,-5.0257313e-05,0.00017889676,0.0,-0.08186029,0.15467364,-0.0016403123,0.01170338,-0.00027487415,-0.058527347,0.14861168,0.047410008,0.042117015,0.040659074,2.704782,0.053713392,5.8792515,0.10290527,0.8279081,0.48427242,0.23467836,0.13193986,inf,inf,inf,inf,1,1,1,1,2,0,2,1,4,0,1,1,1,0
606289161,606288559,45936231,42.3585499,-71.08724959999999,0.64912444,-0.6314868,4.9249015,-5.0257313e-05,0.00017889676,0.0,-0.08113685,0.1688652,-0.00021609105,0.012447383,-0.00027487415,-0.058527347,0.14861168,-0.0122356545,0.03672025,0.16872884,2.7060807,0.053713392,5.8792515,0.105600834,0.8431182,0.48639378,0.24122755,0.13282958,inf,inf,inf,inf,1,1,1,1,2,0,2,1,4,0,1,1,1,0
606786914,606786286,45936231,42.3585499,-71.08724959999999,0.64088374,-0.5499735,4.9439554,-5.0257313e-05,0.00017889676,0.0,-0.06579433,0.17622034,0.00070743915,0.02069675,-0.00027487415,-0.058527347,0.14861168,-0.009442709,0.011746608,0.08170162,2.7074616,0.053713392,5.8792515,0.1,0.8214831,0.48479557,0.23408927,0.13196602,inf,inf,inf,inf,1,1,1,1,2,0,2,1,4,0,1,1,1,0
607294531,607293967,45936231,42.3585499,-71.08724959999999,0.6007316,-0.4914433,4.9464593,-5.0257313e-05,0.00017889676,0.0,-0.060122196,0.17508578,0.008231178,0.020105198,-0.00027487415,-0.058527347,0.14861168,0.011310232,0.0001914329,-0.033490572,2.708819,0.053713392,5.8792515,0.1,0.8290234,0.48612276,0.23536439,0.13221954,inf,inf,inf,inf,1,1,1,1,2,0,2,1,4,0,1,1,1,0
607792256,607791694,45936231,42.3585499,-71.08724959999999,0.6026775,-0.53095317,4.9467087,-5.0257313e-05,0.00017889676,0.0,-0.04321882,0.14079423,0.01100957,0.013452947,-0.00027487415,-0.058527347,0.14861168,0.027991781,0.023665437,-0.046391737,2.7102103,0.053713392,5.8792515,0.1,0.8077571,0.48453957,0.22885695,0.13141286,inf,inf,inf,inf,1,1,1,1,2,0,2,1,4,0,1,1,1,0
608290040,608289421,45936231,42.3585499,-71.08724959999999,0.5929108,-0.58697855,4.939842,-5.0257313e-05,0.00017889676,0.0,-0.028130472,0.106328845,0.004560389,-0.002089059,-0.00027487415,-0.058527347,0.14861168,0.0020809406,0.024724597,0.0665565,2.7113433,0.053713392,5.8792515,0.1,0.8103581,0.47964287,0.22868778,0.13060085,inf,inf,inf,inf,1,1,1,1,2,0,2,1,4,0,1,1,1,0
608787680,608787147,45936231,42.3585499,-71.08724959999999,0.5793532,-0.5695187,4.934922,-5.0257313e-05,0.00017889676,0.0,-0.013896169,0.104195505,-0.0001739086,-0.009949669,-0.00027487415,-0.058527347,0.14861168,0.05124295,-0.0004923847,0.014809461,2.7128196,0.053713392,5.8792515,0.1,0.79308504,0.47901472,0.22505148,0.13026482,inf,inf,inf,inf,1,1,1,1,2,0,2,1,4,0,1,1,1,0
609285593,609284873,45936231,42.3585499,-71.08724959999999,0.59395397,-0.58895415,4.930892,-5.0257313e-05,0.00017889676,0.0,7.223459e-05,0.088993035,0.013003737,0.0019188261,-0.00027487415,-0.058527347,0.14861168,-0.028753372,0.05090595,0.23850204,2.7138968,0.053713392,5.8792515,0.1,0.7889448,0.47690186,0.2200501,0.12929504,inf,inf,inf,inf,1,1,1,1,2,0,2,1,4,0,1,1,1,0
609793238,609792554,45936231,42.3585499,-71.08724959999999,0.5967446,-0.62954897,4.926641,-5.0257313e-05,0.00017889676,0.0,0.00925631,0.07322138,0.0033189063,-0.006829742,-0.00027487415,-0.058527347,0.14861168,0.011501749,-0.017993402,0.061036892,2.7152586,0.053713392,5.8792515,0.105442524,0.780137,0.4747789,0.22319588,0.12956207,inf,inf,inf,inf,1,1,1,1,2,0,2,1,4,0,1,1,1,0
610290868,610290280,45936231,42.3585499,-71.08724959999999,0.56941277,-0.7032659,4.931572,-5.0257313e-05,0.00017889676,0.0,0.00442992,0.04474723,0.009777351,0.0026539292,-0.00027487415,-0.058527347,0.14861168,0.052281264,-0.046619065,-0.077101246,2.7170715,0.053713392,5.8792515,0.1,0.79136974,0.47709745,0.22929794,0.13064608,inf,inf,inf,inf,1,1,1,1,2,0,2,1,4,0,1,1,1,0
610788536,610788006,45936231,42.3585499,-71.08724959999999,0.56388456,-0.77969944,4.936229,-5.0257313e-05,0.00017889676,0.0,0.011685949,0.01948742,0.010950273,0.009877093,-0.00027487415,-0.058527347,0.14861168,0.005589968,0.004497668,0.040534697,2.7182865,0.053713392,5.8792515,0.108193874,0.75714064,0.47122324,0.21117704,0.12764989,inf,inf,inf,inf,1,1,1,1,2,0,2,1,4,0,1,1,1,0
611286310,611285732,45936231,42.3585499,-71.08724959999999,0.5515589,-0.84938055,4.948468,-5.0257313e-05,0.00017889676,0.0,0.0122606605,-0.0007131784,0.009640174,0.011856974,-0.00027487415,-0.058527347,0.14861168,0.015993189,0.019521622,0.089315265,2.7197502,0.053713392,5.8792515,0.1,0.7716709,0.47490117,0.2214077,0.129531,inf,inf,inf,inf,1,1,1,1,2,0,2,1,4,0,1,1,1,0
611784104,611783458,45936231,42.3585499,-71.08724959999999,0.54664594,-0.8864193,4.9564204,-5.0257313e-05,0.00017889676,0.0,0.015099169,0.00014158737,0.013852169,0.017636634,-0.00027487415,-0.058527347,0.14861168,0.040546026,-0.0024945824,-0.2134876,2.7213845,0.053713392,5.8792515,0.1,0.74909544,0.46800232,0.21269001,0.12755853,inf,inf,inf,inf,1,1,1,1,2,0,2,1,4,0,1,1,1,0
612291691,612291138,45936231,42.3585499,-71.08724959999999,0.5529535,-0.9371533,4.9628983,-5.0257313e-05,0.00017889676,0.0,0.026686432,-0.005583336,0.012210504,0.011903674,-0.00027487415,-0.058527347,0.14861168,-0.022950588,-0.035225127,0.18648271,2.722433,0.053713392,5.8792515,0.1,0.7556398,0.46978018,0.21553254,0.12816969,inf,inf,inf,inf,1,1,1,1,2,0,2,1,4,0,1,1,1,0
612789436,612788863,45936231,42.3585499,-71.08724959999999,0.56284,-0.9931679,4.957296,-5.0257313e-05,0.00017889676,0.0,0.033236418,-0.013035637,0.015504329,0.004404782,-0.00027487415,-0.058527347,0.14861168,-0.033123326,-0.07951997,-0.20600736,2.7190926,0.053713392,5.8792515,0.1,0.7378836,0.46845722,0.21072012,0.12749268,inf,inf,inf,inf,1,1,1,1,2,0,2,1,4,0,1,1,1,0
613287142,613286588,45936231,42.3585499,-71.08724959999999,0.61645615,-1.0895137,4.948598,-5.0257313e-05,0.00017889676,0.0,0.057194535,-0.039631628,0.0153001705,-0.0039986265,-0.00027487415,-0.058527347,0.14861168,-0.046845295,-0.055750065,0.11942223,2.723526,0.053713392,5.8792515,0.1,0.75613874,0.4734222,0.22316593,0.12986104,inf,inf,inf,inf,1,1,1,1,2,0,2,1,4,0,1,1,1,0
613794909,613794268,45936231,42.3585499,-71.08724959999999,0.6603916,-1.2111493,4.9336343,-5.0257313e-05,0.00017889676,0.0,0.07065398,-0.067893796,0.018350277,-0.0117592905,-0.00027487415,-0.058527347,0.14861168,-0.028388634,-0.07605296,-0.14889823,2.7238874,0.053713392,5.8792515,0.1,0.750137,0.47209388,0.2253705,0.13014501,inf,inf,inf,inf,1,1,1,1,2,0,2,1,4,0,1,1,1,0
614292554,614291993,45936231,42.3585499,-71.08724959999999,0.64362675,-1.2663779,4.927671,-5.0257313e-05,0.00017889676,0.0,0.057623588,-0.06467345,0.014132949,-0.013894084,-0.00027487415,-0.058527347,0.14861168,0.0034407775,-0.041944977,-0.16338998,2.724849,0.053713392,5.8792515,0.101201534,0.77306235,0.47742108,0.23783062,0.13234915,inf,inf,inf,inf,1,1,1,1,2,0,2,1,4,0,1,1,1,0
614790465,614789718,45936231,42.3585499,-71.08724959999999,0.62280643,-1.342075,4.9117856,-5.0257313e-05,0.00017889676,0.0,0.041420117,-0.07137039,0.0062803165,-0.026214462,-0.00027487415,-0.058527347,0.14861168,-0.02784286,0.029967014,-0.024258109,2.7253678,0.053713392,5.8792515,0.1,0.7653459,0.4794146,0.2367065,0.13271688,inf,inf,inf,inf,1,1,1,1,2,0,2,1,4,0,1,1,1,0
615287985,615287442,45936231,42.3585499,-71.08724959999999,0.61336595,-1.4007663,4.9226613,-5.0257313e-05,0.00017889676,0.0,0.03654952,-0.069764756,0.0012275013,-0.009406682,-0.00027487415,-0.058527347,0.14861168,0.00015247204,0.018059557,0.09790132,2.7273798,0.053713392,5.8792515,0.11112356,0.77095133,0.48022732,0.2345258,0.13249846,inf,inf,inf,inf,1,1,1,1,2,0,2,1,4,0,1,1,1,0
615785866,615785167,45936231,42.3585499,-71.08724959999999,0.62965786,-1.4539493,4.9456515,-5.0257313e-05,0.00017889676,0.0,0.043301955,-0.064596616,0.00078823767,0.010760657,-0.00027487415,-0.058527347,0.14861168,0.014170225,0.02104846,-0.09751866,2.728467,0.053713392,5.8792515,0.10935736,0.7507981,0.47447273,0.22527038,0.13064678,inf,inf,inf,inf,1,1,1,1,2,0,2,1,4,0,1,1,1,0
616293386,616292846,45936231,42.3585499,-71.08724959999999,0.6772754,-1.5002532,4.9522953,-5.0257313e-05,0.00017889676,0.0,0.061783973,-0.05784881,0.009571533,0.018879559,-0.00027487415,-0.058527347,0.14861168,0.02399048,-0.016288817,0.011986763,2.7295868,0.053713392,5.8792515,0.1,0.7612553,0.47705445,0.22794786,0.13119087,inf,inf,inf,inf,1,1,1,1,2,0,2,1,4,0,1,1,1,0
616791110,616790570,45936231,42.3585499,-71.08724959999999,0.71599644,-1.5533644,4.9680953,-5.0257313e-05,0.00017889676,0.0,0.07231829,-0.05373575,0.025142636,0.031487007,-0.00027487415,-0.058527347,0.14861168,0.066688955,0.015443763,-0.14019336,2.7299984,0.053713392,5.8792515,0.1,0.74906164,0.47776198,0.22547753,0.13110536,inf,inf,inf,inf,1,1,1,1,2,0,2,1,4,0,1,1,1,0
617288835,617288294,45936231,42.3585499,-71.08724959999999,0.71620905,-1.5976362,4.97281,-5.0257313e-05,0.00017889676,0.0,0.06670967,-0.04632327,0.04528352,0.038759217,-0.00027487415,-0.058527347,0.14861168,-0.0171118,0.068202816,0.22209415,2.7307823,0.053713392,5.8792515,0.1,0.7677035,0.4817194,0.23415838,0.1325718,inf,inf,inf,inf,1,1,1,1,2,0,2,1,4,0,1,1,1,0
617786676,617786018,45936231,42.3585499,-71.08724959999999,0.6846554,-1.6451956,4.979483,-5.0257313e-05,0.00017889676,0.0,0.051132534,-0.042912386,0.032220423,0.01619447,-0.00027487415,-0.058527347,0.14861168,0.0816873,-0.013804515,-0.19530341,2.7316513,0.053713392,5.8792515,0.1,0.76242816,0.4796167,0.23554547,0.13250364,inf,inf,inf,inf,1,1,1,1,2,0,2,1,4,0,1,1,1,0
618284445,618283741,45936231,42.3585499,-71.08724959999999,0.6413107,-1.7001636,4.982373,-5.0257313e-05,0.00017889676,0.0,0.032983594,-0.04628504,0.037070468,0.0176868,-0.00027487415,-0.058527347,0.14861168,0.029582722,-0.05216665,-0.018031776,2.732304,0.053713392,5.8792515,0.1,0.76618236,0.4796358,0.23227812,0.13197681,inf,inf,inf,inf,1,1,1,1,2,0,2,1,4,0,1,1,1,0
618792020,618791420,45936231,42.3585499,-71.08724959999999,0.6211663,-1.6780403,4.9756317,-5.0257313e-05,0.00017889676,0.0,0.026905838,-0.015209939,0.014595906,-0.014732611,-0.00027487415,-0.058527347,0.14861168,0.0081358515,-0.020111473,-0.0046236305,2.7329702,0.053713392,5.8792515,0.1,0.7470605,0.4789481,0.22396031,0.13094705,inf,inf,inf,inf,1,1,1,1,2,0,2,1,4,0,1,1,1,0
619289806,619289143,45936231,42.3585499,-71.08724959999999,0.5929264,-1.7220553,4.9486127,-5.0257313e-05,0.00017889676,0.0,0.015197949,-0.017741002,0.011038104,-0.032838892,-0.00027487415,-0.058527347,0.14861168,0.017197648,0.06701629,-0.027055707,2.7309709,0.053713392,5.8792515,0.1,0.7438545,0.47697678,0.21831684,0.12975128,inf,inf,inf,inf,1,1,1,1,2,0,2,1,4,0,1,1,1,0
619787398,619786866,45936231,42.3585499,-71.08724959999999,0.5842187,-1.7506139,4.930725,-5.0257313e-05,0.00017889676,0.0,0.009108926,-0.015483274,0.0053182384,-0.03450875,-0.00027487415,-0.058527347,0.14861168,-0.03861082,0.016534925,0.12584062,2.7324574,0.053713392,5.8792515,0.110292435,0.72832006,0.4722638,0.21509933,0.1287233,inf,inf,inf,inf,1,1,1,1,2,0,2,1,4,0,1,1,1,0
620285118,620284590,45936231,42.3585499,-71.08724959999999,0.5984944,-1.7479428,4.940927,-5.0257313e-05,0.00017889676,0.0,0.009375829,-0.0033379423,0.023708168,0.0023125182,-0.00027487415,-0.058527347,0.14861168,0.02024388,-0.011597394,-0.032986872,2.7344763,0.053713392,5.8792515,0.1073432,0.74213225,0.4752863,0.22262222,0.13003083,inf,inf,inf,inf,1,1,1,1,2,0,2,1,4,0,1,1,1,0
620792830,620792267,45936231,42.3585499,-71.08724959999999,0.56798315,-1.7301016,4.9664826,-5.0257313e-05,0.00017889676,0.0,-0.0064835786,0.0090554105,0.032165445,0.028232347,-0.00027487415,-0.058527347,0.14861168,0.010521546,0.0033844423,0.05789019,2.734255,0.053713392,5.8792515,0.103784084,0.7270172,0.4754511,0.21825829,0.12961857,inf,inf,inf,inf,1,1,1,1,2,0,2,1,4,0,1,1,1,0
621290640,621289990,45936231,42.3585499,-71.08724959999999,0.4680395,-1.6492835,4.9594736,-5.0257313e-05,0.00017889676,0.0,-0.046111025,0.044813056,0.021034736,0.0009375328,-0.00027487415,-0.058527347,0.14861168,-0.0067305556,0.045649532,-0.30055654,2.7352886,0.053713392,5.8792515,0.1,0.74287736,0.4744312,0.22629718,0.13037904,inf,inf,inf,inf,1,1,1,1,2,0,2,1,4,0,1,1,1,0
621788262,621787713,45936231,42.3585499,-71.08724959999999,0.402159,-1.5764847,4.936534,-5.0257313e-05,0.00017889676,0.0,-0.063733175,0.07128561,0.009200296,-0.026795719,-0.00027487415,-0.058527347,0.14861168,-0.031681914,0.00016507422,0.03961737,2.7365658,0.053713392,5.8792515,0.1,0.73307204,0.4755569,0.22547972,0.13061059,inf,inf,inf,inf,1,1,1,1,2,0,2,1,4,0,1,1,1,0
622286098,622285435,45936231,42.3585499,-71.08724959999999,0.3750383,-1.5297654,4.918168,-5.0257313e-05,0.00017889676,0.0,-0.06231771,0.08328924,-0.0066279285,-0.04047146,-0.00027487415,-0.058527347,0.14861168,-0.0442746,-0.006509549,0.22834712,2.7365882,0.053713392,5.8792515,0.105697155,0.7492297,0.47873268,0.23234603,0.13180141,inf,inf,inf,inf,1,1,1,1,2,0,2,1,4,0,1,1,1,0
622783837,622783158,45936231,42.3585499,-71.08724959999999,0.35535458,-1.5013677,4.893734,-5.0257313e-05,0.00017889676,0.0,-0.059830308,0.08626926,-0.010969866,-0.04701214,-0.00027487415,-0.058527347,0.14861168,-0.036779344,0.004011335,0.019477863,2.736773,0.053713392,5.8792515,0.1,0.73815143,0.47949204,0.22951342,0.1317544,inf,inf,inf,inf,1,1,1,1,2,0,2,1,4,0,1,1,1,0
623291498,623290835,45936231,42.3585499,-71.08724959999999,0.36547026,-1.4948459,4.875482,-5.0257313e-05,0.00017889676,0.0,-0.048059568,0.082017414,-0.0064996434,-0.036092952,-0.00027487415,-0.058527347,0.14861168,-0.03223556,0.06256065,0.21835347,2.7365944,0.053713392,5.8792515,0.10692215,0.75531375,0.478691,0.23523279,0.13215788,inf,inf,inf,inf,1,1,1,1,2,0,2,1,4,0,1,1,1,0
623789202,623788557,45936231,42.3585499,-71.08724959999999,0.35567203,-1.5670106,4.866973,-5.0257313e-05,0.00017889676,0.0,-0.04272647,0.046992414,-0.0054279487,-0.028287673,-0.00027487415,-0.058527347,0.14861168,0.0054550883,-0.001080088,-0.06569634,2.736444,0.053713392,5.8792515,0.10432196,0.7381025,0.47767952,0.22699314,0.1311982,inf,inf,inf,inf,1,1,1,1,2,0,2,1,4,0,1,1,1,0
624286832,624286279,45936231,42.3585499,-71.08724959999999,0.3338863,-1.5749645,4.8415747,-5.0257313e-05,0.00017889676,0.0,-0.045636304,0.047860008,-0.0072376844,-0.03740801,-0.00027487415,-0.058527347,0.14861168,-0.024148218,0.018250696,0.01267824,2.736856,0.053713392,5.8792515,0.104025364,0.7450342,0.478159,0.22625098,0.13104337,inf,inf,inf,inf,1,1,1,1,2,0,2,1,4,0,1,1,1,0
624794488,624793955,45936231,42.3585499,-71.08724959999999,0.30631027,-1.5733091,4.8210745,-5.0257313e-05,0.00017889676,0.0,-0.05057767,0.051900562,-0.023737462,-0.051060256,-0.00027487415,-0.058527347,0.14861168,-0.008750798,0.03705665,-0.05967015,2.7368622,0.053713392,5.8792515,0.102930546,0.7369815,0.48000923,0.225418,0.13132244,inf,inf,inf,inf,1,1,1,1,2,0,2,1,4,0,1,1,1,0
625292331,625291676,45936231,42.3585499,-71.08724959999999,0.28721592,-1.561171,4.8097777,-5.0257313e-05,0.00017889676,0.0,-0.0477655,0.058402877,-0.026144417,-0.04061392,-0.00027487415,-0.058527347,0.14861168,0.051712595,-0.022737788,-0.26448774,2.7361488,0.053713392,5.8792515,0.11202574,0.74537754,0.47643802,0.22640131,0.13076003,inf,inf,inf,inf,1,1,1,1,2,0,2,1,4,0,1,1,1,0
625789980,625789400,45936231,42.3585499,-71.08724959999999,0.27057308,-1.5229241,4.8106713,-5.0257313e-05,0.00017889676,0.0,-0.045432102,0.07291717,-0.026460929,-0.024513597,-0.00027487415,-0.058527347,0.14861168,0.0061529083,-0.013519545,-0.040068805,2.7358716,0.053713392,5.8792515,0.11508036,0.7370861,0.47765833,0.2260544,0.13102782,inf,inf,inf,inf,1,1,1,1,2,0,2,1,4,0,1,1,1,0
626287664,626287120,45936231,42.3585499,-71.08724959999999,0.26928934,-1.5116935,4.8087854,-5.0257313e-05,0.00017889676,0.0,-0.037963018,0.07562482,-0.018587036,-0.011475442,-0.00027487415,-0.058527347,0.14861168,0.005240293,0.031519268,-0.032759372,2.735832,0.053713392,5.8792515,0.10852194,0.7572396,0.48151025,0.23493601,0.13251911,inf,inf,inf,inf,1,1,1,1,2,0,2,1,4,0,1,1,1,0
626785371,626784841,45936231,42.3585499,-71.08724959999999,0.25013018,-1.5273303,4.813205,-5.0257313e-05,0.00017889676,0.0,-0.039571315,0.06632107,-0.021212768,-0.0053213146,-0.00027487415,-0.058527347,0.14861168,0.013904138,0.0495778,0.12030546,2.7359004,0.053713392,5.8792515,0.11417484,0.74989706,0.48311132,0.23416518,0.13281775,inf,inf,inf,inf,1,1,1,1,2,0,2,1,4,0,1,1,1,0
627293236,627292516,45936231,42.3585499,-71.08724959999999,0.27126178,-1.5434761,4.8233523,-5.0257313e-05,0.00017889676,0.0,-0.020761687,0.057055086,-0.010057902,0.011083395,-0.00027487415,-0.058527347,0.14861168,-0.0014612029,-0.012376784,-0.025534004,2.7358515,0.053713392,5.8792515,0.103210926,0.77505493,0.48367992,0.24423377,0.13381653,inf,inf,inf,inf,1,1,1,1,2,0,2,1,4,0,1,1,1,0
627790856,627790237,45936231,42.3585499,-71.08724959999999,0.29646912,-1.5422249,4.82894,-5.0257313e-05,0.00017889676,0.0,-0.008536736,0.056746684,-0.012085042,0.008884673,-0.00027487415,-0.058527347,0.14861168,0.0033494257,0.012848859,-0.09721348,2.736059,0.053713392,5.8792515,0.10164404,0.77269596,0.48635274,0.24569127,0.13449891,inf,inf,inf,inf,1,1,1,1,2,0,2,1,4,0,1,1,1,0
628288665,628287960,45936231,42.3585499,-71.08724959999999,0.31941777,-1.5384403,4.8322763,-5.0257313e-05,0.00017889676,0.0,0.0026276659,0.05598531,-0.005239708,0.011912021,-0.00027487415,-0.058527347,0.14861168,0.0020651773,0.0021303033,0.009084227,2.736012,0.053713392,5.8792515,0.10397816,0.7952394,0.48989508,0.2526715,0.13555008,inf,inf,inf,inf,1,1,1,1,2,0,2,1,4,0,1,1,1,0
628786262,628785678,45936231,42.3585499,-71.08724959999999,0.3531862,-1.5772039,4.841305,-5.0257313e-05,0.00017889676,0.0,0.01640397,0.04220367,0.00491292,0.02241578,-0.00027487415,-0.058527347,0.14861168,0.015624443,-0.0146353645,0.028968109,2.7361042,0.053713392,5.8792515,0.10293007,0.78065085,0.49003768,0.24546954,0.13496123,inf,inf,inf,inf,1,1,1,1,2,0,2,1,4,0,1,1,1,0
629284147,629283399,45936231,42.3585499,-71.08724959999999,0.39553463,-1.6511735,4.8528514,-5.0257313e-05,0.00017889676,0.0,0.029447265,0.014568551,0.008087338,0.024703009,-0.00027487415,-0.058527347,0.14861168,-0.004320352,0.027231643,-0.030721117,2.7362888,0.053713392,5.8792515,0.1,0.7933181,0.4867688,0.2464687,0.1343318,inf,inf,inf,inf,1,1,1,1,2,0,2,1,4,0,1,1,1,0
629791670,629791074,45936231,42.3585499,-71.08724959999999,0.38835704,-1.6755426,4.8489866,-5.0257313e-05,0.00017889676,0.0,0.023631608,0.013526766,0.00032505495,0.0057814876,-0.00027487415,-0.058527347,0.14861168,-0.026247801,0.0106247375,0.10546102,2.7363017,0.053713392,5.8792515,0.1,0.78130656,0.48801538,0.24168292,0.13409553,inf,inf,inf,inf,1,1,1,1,2,0,2,1,4,0,1,1,1,0
630289345,630288794,45936231,42.3585499,-71.08724959999999,0.36224133,-1.6969862,4.856779,-5.0257313e-05,0.00017889676,0.0,0.01729496,0.010868652,0.0026193303,0.0109019,-0.00027487415,-0.058527347,0.14861168,0.017854372,0.009011257,-0.081505425,2.7361143,0.053713392,5.8792515,0.10162258,0.79466856,0.48960146,0.24423935,0.13438639,inf,inf,inf,inf,1,1,1,1,2,0,2,1,4,0,1,1,1,0
630787087,630786514,45936231,42.3585499,-71.08724959999999,0.2926961,-1.6975448,4.858886,-5.0257313e-05,0.00017889676,0.0,-0.0033692664,0.015564082,0.011486236,0.015493707,-0.00027487415,-0.058527347,0.14861168,0.0022833194,-0.008480529,0.08209298,2.736121,0.053713392,5.8792515,0.1,0.78622866,0.49084076,0.24298677,0.13452579,inf,inf,inf,inf,1,1,1,1,2,0,2,1,4,0,1,1,1,0
631295051,631294188,45936231,42.3585499,-71.08724959999999,0.20581923,-1.6707485,4.843598,-5.0257313e-05,0.00017889676,0.0,-0.027349677,0.031226994,0.008643949,-0.0056210556,-0.00027487415,-0.058527347,0.14861168,-0.018851321,-0.012264617,0.28734997,2.7362375,0.053713392,5.8792515,0.1,0.78149736,0.4887045,0.24301092,0.13427459,inf,inf,inf,inf,1,1,1,1,2,0,2,1,4,0,1,1,1,0
631792478,631791908,45936231,42.3585499,-71.08724959999999,0.06298291,-1.6095579,4.8407354,-5.0257313e-05,0.00017889676,0.0,-0.06910655,0.055542506,0.010858684,-0.002869522,-0.00027487415,-0.058527347,0.14861168,-0.00344582,0.03000862,-0.06627717,2.7363453,0.053713392,5.8792515,0.1,0.80732846,0.49256277,0.2527201,0.1356127,inf,inf,inf,inf,1,1,1,1,2,0,2,1,4,0,1,1,1,0
632290193,632289627,45936231,42.3585499,-71.08724959999999,-0.030551713,-1.6042118,4.8295016,-5.0257313e-05,0.00017889676,0.0,-0.08482683,0.053767387,-0.00040504118,-0.019447492,-0.00027487415,-0.058527347,0.14861168,-0.036423422,0.054063562,0.10689681,2.7365446,0.053713392,5.8792515,0.1,0.8262924,0.49483398,0.2572112,0.13616572,inf,inf,inf,inf,1,1,1,1,2,0,2,1,4,0,1,1,1,0
632788084,632787347,45936231,42.3585499,-71.08724959999999,-0.11271002,-1.6432242,4.8040304,-5.0257313e-05,0.00017889676,0.0,-0.094994046,0.039898366,-0.014192158,-0.040985856,-0.00027487415,-0.058527347,0.14861168,0.004165983,0.030445406,-0.034372307,2.736281,0.053713392,5.8792515,0.1,0.8124346,0.49505427,0.25151676,0.13576213,inf,inf,inf,inf,1,1,1,1,2,0,2,1,4,0,1,1,1,0
633285701,633285066,45936231,42.3585499,-71.08724959999999,-0.14711128,-1.6483401,4.772425,-5.0257313e-05,0.00017889676,0.0,-0.08843287,0.04475312,-0.02404106,-0.05588829,-0.00027487415,-0.058527347,0.14861168,-0.030572878,0.043128278,0.1027329,2.736226,0.053713392,5.8792515,0.1054554,0.82038367,0.49032137,0.2494758,0.13462034,inf,inf,inf,inf,1,1,1,1,2,0,2,1,4,0,1,1,1,0
633793270,633792740,45936231,42.3585499,-71.08724959999999,-0.1773638,-1.6658227,4.7699437,-5.0257313e-05,0.00017889676,0.0,-0.07960296,0.041594796,-0.01889364,-0.02877138,-0.00027487415,-0.058527347,0.14861168,-0.027430749,0.015822755,0.023242708,2.7362201,0.053713392,5.8792515,0.1118269,0.81328887,0.492322,0.24832979,0.13490112,inf,inf,inf,inf,1,1,1,1,2,0,2,1,4,0,1,1,1,0
634291045,634290459,45936231,42.3585499,-71.08724959999999,-0.23169304,-1.7188917,4.7671227,-5.0257313e-05,0.00017889676,0.0,-0.08112072,0.027168771,-0.010358441,-0.013088327,-0.00027487415,-0.058527347,0.14861168,-0.030826466,-0.04680377,-0.020194564,2.736148,0.053713392,5.8792515,0.10875225,0.8343271,0.4950184,0.2551592,0.13578686,inf,inf,inf,inf,1,1,1,1,2,0,2,1,4,0,1,1,1,0
634788764,634788177,45936231,42.3585499,-71.08724959999999,-0.28347808,-1.7672106,4.7658777,-5.0257313e-05,0.00017889676,0.0,-0.08224489,0.016540274,-0.0061462303,-0.0063728397,-0.00027487415,-0.058527347,0.14861168,-0.01856534,-0.0018483136,0.09339085,2.7362392,0.053713392,5.8792515,0.10103798,0.82611656,0.49625778,0.25377026,0.13596511,inf,inf,inf,inf,1,1,1,1,2,0,2,1,4,0,1,1,1,0
635286459,635285896,45936231,42.3585499,-71.08724959999999,-0.31370375,-1.781644,4.756632,-5.0257313e-05,0.00017889676,0.0,-0.07075139,0.020162195,-0.009197164,-0.014576793,-0.00027487415,-0.058527347,0.14861168,0.018745136,0.016681101,0.028076645,2.7362664,0.053713392,5.8792515,0.1,0.8333455,0.4913924,0.25203672,0.1348703,inf,inf,inf,inf,1,1,1,1,2,0,2,1,4,0,1,1,1,0
635784199,635783614,45936231,42.3585499,-71.08724959999999,-0.3973782,-1.8021194,4.7384806,-5.0257313e-05,0.00017889676,0.0,-0.08055204,0.020354679,-0.02578536,-0.037085537,-0.00027487415,-0.058527347,0.14861168,0.01564803,0.03902213,-0.20417653,2.7367182,0.053713392,5.8792515,0.1,0.82286084,0.49217546,0.24989,0.13490433,inf,inf,inf,inf,1,1,1,1,2,0,2,1,4,0,1,1,1,0
636292307,636291287,45936231,42.3585499,-71.08724959999999,-0.48130813,-1.8051047,4.7240143,-5.0257313e-05,0.00017889676,0.0,-0.085887104,0.027765367,-0.032919273,-0.03709716,-0.00027487415,-0.058527347,0.14861168,0.006171749,0.03242663,0.17667508,2.7364533,0.053713392,5.8792515,0.10286808,0.81758034,0.49461412,0.24995841,0.13539977,inf,inf,inf,inf,1,1,1,1,2,0,2,1,4,0,1,1,1,0
636789700,636789005,45936231,42.3585499,-71.08724959999999,-0.5807125,-1.797612,4.702135,-5.0257313e-05,0.00017889676,0.0,-0.09309929,0.035551462,-0.03409336,-0.03861795,-0.00027487415,-0.058527347,0.14861168,-0.031892937,-0.021945287,0.07795302,2.7361183,0.053713392,5.8792515,0.10805607,0.84510577,0.49346814,0.26060662,0.1360144,inf,inf,inf,inf,1,1,1,1,2,0,2,1,4,0,1,1,1,0
637287548,637286723,45936231,42.3585499,-71.08724959999999,-0.61070377,-1.8361185,4.6910753,-5.0257313e-05,0.00017889676,0.0,-0.081034034,0.023345664,-0.021894624,-0.022920055,-0.00027487415,-0.058527347,0.14861168,-0.00384077,0.023919184,0.10135042,2.7359004,0.053713392,5.8792515,0.10330343,0.87466604,0.49725857,0.27114034,0.13732252,inf,inf,inf,inf,1,1,1,1,2,0,2,1,4,0,1,1,1,0
637785061,637784441,45936231,42.3585499,-71.08724959999999,-0.6010718,-1.8512725,4.681244,-5.0257313e-05,0.00017889676,0.0,-0.054790925,0.022299808,-0.024357101,-0.025445001,-0.00027487415,-0.058527347,0.14861168,0.02135254,-0.040017527,-0.13377701,2.7358067,0.053713392,5.8792515,0.10458517,0.854884,0.49682468,0.26197365,0.13663127,inf,inf,inf,inf,1,1,1,1,2,0,2,1,4,0,1,1,1,0
638292676,638292113,45936231,42.3585499,-71.08724959999999,-0.62602085,-1.8790402,4.6916256,-5.0257313e-05,0.00017889676,0.0,-0.046219368,0.015808947,-0.020646852,-0.0038907877,-0.00027487415,-0.058527347,0.14861168,0.03974058,0.035958212,-0.026301965,2.7354937,0.053713392,5.8792515,0.115691185,0.88025683,0.5006476,0.26960236,0.13766956,inf,inf,inf,inf,1,1,1,1,2,0,2,1,4,0,1,1,1,0
638790444,638789831,45936231,42.3585499,-71.08724959999999,-0.7030284,-1.8626344,4.7110944,-5.0257313e-05,0.00017889676,0.0,-0.05487768,0.02743114,-0.025947109,0.0061886674,-0.00027487415,-0.058527347,0.14861168,0.051277354,0.10078568,-0.16441914,2.7353704,0.053713392,5.8792515,0.11288786,0.86822706,0.4964383,0.26571617,0.13678263,inf,inf,inf,inf,1,1,1,1,2,0,2,1,4,0,1,1,1,0
639288089,639287549,45936231,42.3585499,-71.08724959999999,-0.7343116,-1.864674,4.7278776,-5.0257313e-05,0.00017889676,0.0,-0.045258574,0.029778864,-0.027130473,0.014911363,-0.00027487415,-0.058527347,0.14861168,0.017989725,-0.04145708,0.050037403,2.7354827,0.053713392,5.8792515,0.108121395,0.8883633,0.49872828,0.27088204,0.13737798,inf,inf,inf,inf,1,1,1,1,2,0,2,1,4,0,1,1,1,0
639785822,639785266,45936231,42.3585499,-71.08724959999999,-0.7400252,-1.8546212,4.751069,-5.0257313e-05,0.00017889676,0.0,-0.025316544,0.03733196,-0.0063944706,0.04347435,-0.00027487415,-0.058527347,0.14861168,-0.032872587,-0.08070795,-0.071753204,2.7357025,0.053713392,5.8792515,0.10890961,0.85709566,0.49648756,0.2559722,0.13589287,inf,inf,inf,inf,1,1,1,1,2,0,2,1,4,0,1,1,1,0
640283580,640282983,45936231,42.3585499,-71.08724959999999,-0.7387803,-1.8966612,4.7659454,-5.0257313e-05,0.00017889676,0.0,-0.010995673,0.019408632,0.005163485,0.045828205,-0.00027487415,-0.058527347,0.14861168,-0.024061393,0.06482323,0.14736752,2.7349548,0.053713392,5.8792515,0.1,0.840486,0.4919823,0.24024048,0.1335195,inf,inf,inf,inf,1,1,1,1,2,0,2,1,4,0,1,1,1,0
640791455,640790654,45936231,42.3585499,-71.08724959999999,-0.7872421,-1.9205717,4.7764134,-5.0257313e-05,0.00017889676,0.0,-0.015019677,0.011278674,0.011232704,0.036984213,-0.00027487415,-0.058527347,0.14861168,0.023089547,-0.010328066,-0.08495153,2.7344606,0.053713392,5.8792515,0.1,0.8259199,0.4878673,0.23807962,0.13277759,inf,inf,inf,inf,1,1,1,1,2,0,2,1,4,0,1,1,1,0
641288943,641288371,45936231,42.3585499,-71.08724959999999,-0.8733027,-1.8850929,4.7744436,-5.0257313e-05,0.00017889676,0.0,-0.033750564,0.027789852,0.009914878,0.019091105,-0.00027487415,-0.058527347,0.14861168,0.0007413336,0.14701113,0.13552848,2.7342014,0.053713392,5.8792515,0.1,0.8330496,0.488189,0.23946975,0.13286693,inf,inf,inf,inf,1,1,1,1,2,0,2,1,4,0,1,1,1,0
641786990,641786088,45936231,42.3585499,-71.08724959999999,-0.90278655,-1.8674997,4.7892604,-5.0257313e-05,0.00017889676,0.0,-0.028691635,0.034041923,-0.0069780787,0.009013687,-0.00027487415,-0.058527347,0.14861168,0.019811973,0.03635055,-0.21134792,2.7338197,0.053713392,5.8792515,0.1,0.7938895,0.48228398,0.22132076,0.13005361,inf,inf,inf,inf,1,1,1,1,2,0,2,1,4,0,1,1,1,0
642294318,642293759,45936231,42.3585499,-71.08724959999999,-0.9362425,-1.8588023,4.773676,-5.0257313e-05,0.00017889676,0.0,-0.025213141,0.03664439,0.0031220324,-0.0021974922,-0.00027487415,-0.058527347,0.14861168,0.008875762,0.01900742,-0.021349883,2.7337255,0.053713392,5.8792515,0.1,0.8063635,0.4850592,0.22878668,0.13130684,inf,inf,inf,inf,1,1,1,1,2,0,2,1,4,0,1,1,1,0
642792180,642791475,45936231,42.3585499,-71.08724959999999,-0.9921177,-1.8351469,4.7549562,-5.0257313e-05,0.00017889676,0.0,-0.035005525,0.04340661,-0.00061570585,-0.015663877,-0.00027487415,-0.058527347,0.14861168,0.012736228,0.02683239,0.09027933,2.73358,0.053713392,5.8792515,0.1,0.78631747,0.47917265,0.22433019,0.1301013,inf,inf,inf,inf,1,1,1,1,2,0,2,1,4,0,1,1,1,0
643289737,643289191,45936231,42.3585499,-71.08724959999999,-1.0319709,-1.822789,4.739935,-5.0257313e-05,0.00017889676,0.0,-0.04033163,0.040152896,0.006944933,-0.016424978,-0.00027487415,-0.058527347,0.14861168,-0.001190752,0.08543827,0.02330046,2.733373,0.053713392,5.8792515,0.1,0.79369485,0.48023704,0.22811937,0.1307193,inf,inf,inf,inf,1,1,1,1,2,0,2,1,4,0,1,1,1,0
643787442,643786907,45936231,42.3585499,-71.08724959999999,-1.0576177,-1.8227828,4.7261624,-5.0257313e-05,0.00017889676,0.0,-0.042915728,0.03312394,0.0019403643,-0.022602329,-0.00027487415,-0.058527347,0.14861168,-0.007218621,0.0059564156,0.057763696,2.7334063,0.053713392,5.8792515,0.1,0.7767428,0.47973228,0.22531332,0.13053273,inf,inf,inf,inf,1,1,1,1,2,0,2,1,4,0,1,1,1,0
644285279,644284623,45936231,42.3585499,-71.08724959999999,-1.0565498,-1.8403078,4.715643,-5.0257313e-05,0.00017889676,0.0,-0.033470307,0.022427704,-3.030568e-05,-0.023750244,-0.00027487415,-0.058527347,0.14861168,0.010228167,0.020648774,-0.07220829,2.7334905,0.053713392,5.8792515,0.1,0.7898889,0.48233086,0.23268308,0.13179663,inf,inf,inf,inf,1,1,1,1,2,0,2,1,4,0,1,1,1,0
644792868,644792293,45936231,42.3585499,-71.08724959999999,-1.0283403,-1.8713676,4.701027,-5.0257313e-05,0.00017889676,0.0,-0.013705039,0.011354421,-0.012880941,-0.031539734,-0.00027487415,-0.058527347,0.14861168,0.026454631,-0.020471787,0.015631316,2.733439,0.053713392,5.8792515,0.10844755,0.77811515,0.47931233,0.23179764,0.13146076,inf,inf,inf,inf,1,1,1,1,2,0,2,1,4,0,1,1,1,0
645290589,645290009,45936231,42.3585499,-71.08724959999999,-1.0035545,-1.877924,4.6980734,-5.0257313e-05,0.00017889676,0.0,-0.0040844074,0.011526498,-0.016188825,-0.024121411,-0.00027487415,-0.058527347,0.14861168,0.011446478,-0.02166216,0.048600547,2.733427,0.053713392,5.8792515,0.10767555,0.7910165,0.48168114,0.23741084,0.13243087,inf,inf,inf,inf,1,1,1,1,2,0,2,1,4,0,1,1,1,0
645788298,645787725,45936231,42.3585499,-71.08724959999999,-0.93987465,-1.8873075,4.702686,-5.0257313e-05,0.00017889676,0.0,0.012262051,0.0068805707,-0.0041215243,0.000929222,-0.00027487415,-0.058527347,0.14861168,0.008390641,0.011160594,0.041961953,2.7331772,0.053713392,5.8792515,0.10999632,0.7714134,0.4807503,0.23031159,0.13172019,inf,inf,inf,inf,1,1,1,1,2,0,2,1,4,0,1,1,1,0
646286277,646285440,45936231,42.3585499,-71.08724959999999,-0.90297174,-1.8707374,4.70551,-5.0257313e-05,0.00017889676,0.0,0.012180992,0.013377015,-0.0023480083,0.0018103279,-0.00027487415,-0.058527347,0.14861168,0.017219719,0.01244399,0.0009711711,2.732928,0.053713392,5.8792515,0.1,0.7838433,0.48315966,0.2355999,0.1326489,inf,inf,inf,inf,1,1,1,1,2,0,2,1,4,0,1,1,1,0
646783739,646783155,45936231,42.3585499,-71.08724959999999,-0.8323449,-1.8768805,4.721607,-5.0257313e-05,0.00017889676,0.0,0.026529243,0.007235646,0.0057968604,0.02079291,-0.00027487415,-0.058527347,0.14861168,0.0032632952,0.009958343,-0.0020385522,2.7327702,0.053713392,5.8792515,0.111964226,0.75682527,0.4757348,0.22293748,0.13023904,inf,inf,inf,inf,1,1,1,1,2,0,2,1,4,0,1,1,1,0
647291760,647290824,45936231,42.3585499,-71.08724959999999,-0.7506188,-1.8610846,4.7412324,-5.0257313e-05,0.00017889676,0.0,0.040566664,0.014429499,0.0046463385,0.023547225,-0.00027487415,-0.058527347,0.14861168,0.0074950024,0.026843898,-0.0037107037,2.7325585,0.053713392,5.8792515,0.101112366,0.7312515,0.47285932,0.21074563,0.12833428,inf,inf,inf,inf,1,1,1,1,2,0,2,1,4,0,1,1,1,0
647789098,647788539,45936231,42.3585499,-71.08724959999999,-0.68871397,-1.8191859,4.7450213,-5.0257313e-05,0.00017889676,0.0,0.043993853,0.028117113,0.004814299,0.016656851,-0.00027487415,-0.058527347,0.14861168,0.03134915,0.042394977,0.057499476,2.7321954,0.053713392,5.8792515,0.1,0.73831034,0.4741808,0.21436512,0.12893377,inf,inf,inf,inf,1,1,1,1,2,0,2,1,4,0,1,1,1,0
648286894,648286254,45936231,42.3585499,-71.08724959999999,-0.6348684,-1.7721953,4.7416778,-5.0257313e-05,0.00017889676,0.0,0.046514258,0.041475557,0.0016624347,0.004755677,-0.00027487415,-0.058527347,0.14861168,-0.0011057167,-0.007752253,-0.022921555,2.7318966,0.053713392,5.8792515,0.1,0.7463584,0.47143963,0.21859898,0.12902032,inf,inf,inf,inf,1,1,1,1,2,0,2,1,4,0,1,1,1,0
648794467,648793922,45936231,42.3585499,-71.08724959999999,-0.5831857,-1.7385792,4.7346363,-5.0257313e-05,0.00017889676,0.0,0.043345086,0.046374522,0.007295651,0.0028216522,-0.00027487415,-0.058527347,0.14861168,0.0141662415,0.02071389,0.087202996,2.7316334,0.053713392,5.8792515,0.10043383,0.7272933,0.4705278,0.21237767,0.12820096,inf,inf,inf,inf,1,1,1,1,2,0,2,1,4,0,1,1,1,0
649292166,649291637,45936231,42.3585499,-71.08724959999999,-0.5409299,-1.7188965,4.738409,-5.0257313e-05,0.00017889676,0.0,0.03946941,0.043504454,0.007394183,0.0042430647,-0.00027487415,-0.058527347,0.14861168,-0.0013086499,0.022877602,0.018211398,2.7313845,0.053713392,5.8792515,0.1,0.73065585,0.4707489,0.21322227,0.12828416,inf,inf,inf,inf,1,1,1,1,2,0,2,1,4,0,1,1,1,0
649789908,649789351,45936231,42.3585499,-71.08724959999999,-0.47684664,-1.6861796,4.7429204,-5.0257313e-05,0.00017889676,0.0,0.04231907,0.046900228,0.007956089,0.0059302878,-0.00027487415,-0.058527347,0.14861168,0.008363084,0.03596725,-0.02439703,2.731175,0.053713392,5.8792515,0.1,0.7122988,0.46941638,0.20877402,0.12762295,inf,inf,inf,inf,1,1,1,1,2,0,2,1,4,0,1,1,1,0
650287725,650287065,45936231,42.3585499,-71.08724959999999,-0.38958284,-1.6483316,4.739727,-5.0257313e-05,0.00017889676,0.0,0.059658993,0.04959856,0.0040448704,-0.0016338158,-0.00027487415,-0.058527347,0.14861168,-0.00614048,0.013249753,-0.02761334,2.7311063,0.053713392,5.8792515,0.1,0.7242045,0.46834716,0.21666282,0.12852798,inf,inf,inf,inf,1,1,1,1,2,0,2,1,4,0,1,1,1,0
650785844,650784779,45936231,42.3585499,-71.08724959999999,-0.29963833,-1.6243441,4.7541423,-5.0257313e-05,0.00017889676,0.0,0.06735733,0.04345366,0.017556718,0.02129367,-0.00027487415,-0.058527347,0.14861168,-0.00038132552,0.034378942,0.046373483,2.7308996,0.053713392,5.8792515,0.1,0.7048435,0.4668191,0.21037275,0.1276395,inf,inf,inf,inf,1,1,1,1,2,0,2,1,4,0,1,1,1,0
651292988,651292446,45936231,42.3585499,-71.08724959999999,-0.20489132,-1.6157844,4.7517266,-5.0257313e-05,0.00017889676,0.0,0.0736135,0.034372706,0.01377925,0.0062302435,-0.00027487415,-0.058527347,0.14861168,-0.03615694,0.026508858,0.02730494,2.7305431,0.053713392,5.8792515,0.1,0.7166319,0.47043374,0.2169763,0.12903844,inf,inf,inf,inf,1,1,1,1,2,0,2,1,4,0,1,1,1,0
651790731,651790160,45936231,42.3585499,-71.08724959999999,-0.12687741,-1.5831106,4.740378,-5.0257313e-05,0.00017889676,0.0,0.07538679,0.036882594,0.01620799,-0.0040584793,-0.00027487415,-0.058527347,0.14861168,0.010390307,0.0007648708,-0.014358881,2.7304015,0.053713392,5.8792515,0.1,0.7044692,0.47124583,0.21528962,0.12915203,inf,inf,inf,inf,1,1,1,1,2,0,2,1,4,0,1,1,1,0
652288419,652287873,45936231,42.3585499,-71.08724959999999,-0.07945508,-1.586554,4.7290497,-5.0257313e-05,0.00017889676,0.0,0.06371666,0.023162102,0.0037443694,-0.020492194,-0.00027487415,-0.058527347,0.14861168,0.00076820276,0.018311393,0.020123819,2.7300987,0.053713392,5.8792515,0.1,0.6971282,0.46791193,0.20620541,0.12728225,inf,inf,inf,inf,1,1,1,1,2,0,2,1,4,0,1,1,1,0
652786154,652785587,45936231,42.3585499,-71.08724959999999,-0.07380595,-1.5472852,4.7120085,-5.0257313e-05,0.00017889676,0.0,0.035332564,0.03008144,0.0074663316,-0.020943804,-0.00027487415,-0.058527347,0.14861168,-0.012310662,-0.0016260816,-0.0052036024,2.729799,0.053713392,5.8792515,0.102641106,0.67569005,0.46096626,0.19842939,0.12521875,inf,inf,inf,inf,1,1,1,1,2,0,2,1,4,0,1,1,1,0
653283902,653283300,45936231,42.3585499,-71.08724959999999,-0.05201927,-1.4868333,4.711238,-5.0257313e-05,0.00017889676,0.0,0.023057945,0.042244278,0.008366663,-0.011370143,-0.00027487415,-0.058527347,0.14861168,-0.0019436507,0.0054466547,0.023194171,2.7296553,0.053713392,5.8792515,0.10034084,0.68665147,0.46417674,0.20645179,0.12685494,inf,inf,inf,inf,1,1,1,1,2,0,2,1,4,0,1,1,1,0
653791551,653790967,45936231,42.3585499,-71.08724959999999,0.008266378,-1.4416806,4.7188625,-5.0257313e-05,0.00017889676,0.0,0.027287144,0.04353117,0.022864044,0.009955561,-0.00027487415,-0.058527347,0.14861168,-0.013365676,0.0054184254,-0.014606635,2.7295322,0.053713392,5.8792515,0.1,0.67136776,0.4640672,0.20255782,0.12642428,inf,inf,inf,inf,1,1,1,1,2,0,2,1,4,0,1,1,1,0
654289277,654288679,45936231,42.3585499,-71.08724959999999,0.066503376,-1.4008138,4.7185163,-5.0257313e-05,0.00017889676,0.0,0.029439114,0.046585936,0.011290961,-0.0027480037,-0.00027487415,-0.058527347,0.14861168,-0.0059933695,-0.0037711058,-0.025347628,2.7294657,0.053713392,5.8792515,0.1,0.68377054,0.46347553,0.21047488,0.12746832,inf,inf,inf,inf,1,1,1,1,2,0,2,1,4,0,1,1,1,0
654786968,654786392,45936231,42.3585499,-71.08724959999999,0.062184606,-1.3411078,4.695168,-5.0257313e-05,0.00017889676,0.0,0.006895176,0.05805012,0.0027258082,-0.026640425,-0.00027487415,-0.058527347,0.14861168,0.003584547,0.033164915,-0.029392527,2.7293925,0.053713392,5.8792515,0.1,0.6728891,0.46443516,0.20925042,0.12764478,inf,inf,inf,inf,1,1,1,1,2,0,2,1,4,0,1,1,1,0
655285093,655284104,45936231,42.3585499,-71.08724959999999,0.06637413,-1.3022214,4.666216,-5.0257313e-05,0.00017889676,0.0,-0.0014648195,0.054539483,-0.0032062447,-0.04161638,-0.00027487415,-0.058527347,0.14861168,-0.018664971,0.020414023,0.0038296971,2.729338,0.053713392,5.8792515,0.1,0.69569564,0.47067708,0.22313336,0.13040532,inf,inf,inf,inf,1,1,1,1,2,0,2,1,4,0,1,1,1,0
655792382,655791771,45936231,42.3585499,-71.08724959999999,0.08551814,-1.265261,4.651599,-5.0257313e-05,0.00017889676,0.0,-0.0018115158,0.052745398,-0.00069775945,-0.0331234,-0.00027487415,-0.058527347,0.14861168,-0.012989643,0.033015523,0.01435587,2.7290645,0.053713392,5.8792515,0.10569763,0.6985612,0.4761652,0.22932898,0.13221094,inf,inf,inf,inf,1,1,1,1,2,0,2,1,4,0,1,1,1,0
656290024,656289483,45936231,42.3585499,-71.08724959999999,0.14503245,-1.267074,4.6499066,-5.0257313e-05,0.00017889676,0.0,0.015613104,0.037864834,0.004686746,-0.016118038,-0.00027487415,-0.058527347,0.14861168,-0.013791191,-0.015263114,-0.027145246,2.7290938,0.053713392,5.8792515,0.10423756,0.70311135,0.47224736,0.22510937,0.13100567,inf,inf,inf,inf,1,1,1,1,2,0,2,1,4,0,1,1,1,0
656787726,656787194,45936231,42.3585499,-71.08724959999999,0.1721833,-1.2624916,4.6535597,-5.0257313e-05,0.00017889676,0.0,0.013195868,0.031274986,-0.002936899,-0.013053382,-0.00027487415,-0.058527347,0.14861168,-0.012291533,0.0100874705,0.026989821,2.7292922,0.053713392,5.8792515,0.1,0.6860257,0.47111222,0.21610993,0.12978113,inf,inf,inf,inf,1,1,1,1,2,0,2,1,4,0,1,1,1,0
657285436,657284906,45936231,42.3585499,-71.08724959999999,0.20016335,-1.2437934,4.6346827,-5.0257313e-05,0.00017889676,0.0,0.016207196,0.030722797,-0.006651084,-0.027398178,-0.00027487415,-0.058527347,0.14861168,-0.00023321653,0.011558599,0.017706161,2.7293048,0.053713392,5.8792515,0.1,0.6950771,0.4724576,0.21742897,0.12996389,inf,inf,inf,inf,1,1,1,1,2,0,2,1,4,0,1,1,1,0
657793163,657792572,45936231,42.3585499,-71.08724959999999,0.20630395,-1.1743035,4.624735,-5.0257313e-05,0.00017889676,0.0,0.006972844,0.049557373,-0.0055632396,-0.021657087,-0.00027487415,-0.058527347,0.14861168,-0.011571495,-0.0068734703,-0.0047047134,2.7291422,0.053713392,5.8792515,0.10880613,0.6871584,0.4699573,0.21587326,0.12945114,inf,inf,inf,inf,1,1,1,1,2,0,2,1,4,0,1,1,1,0
658290866,658290283,45936231,42.3585499,-71.08724959999999,0.18609156,-1.1074238,4.62459,-5.0257313e-05,0.00017889676,0.0,-0.009745378,0.06304866,0.0018250465,-0.007713338,-0.00027487415,-0.058527347,0.14861168,0.010691732,0.0001936493,-0.027117832,2.7290547,0.053713392,5.8792515,0.10391712,0.7071247,0.474202,0.22477299,0.13105544,inf,inf,inf,inf,1,1,1,1,2,0,2,1,4,0,1,1,1,0
658788571,658787994,45936231,42.3585499,-71.08724959999999,0.15754947,-1.0398535,4.6200204,-5.0257313e-05,0.00017889676,0.0,-0.026974084,0.074481405,-0.0021395239,-0.012240694,-0.00027487415,-0.058527347,0.14861168,-0.015114169,0.0012227822,-0.019735364,2.7288117,0.053713392,5.8792515,0.1,0.70021445,0.47584364,0.22364144,0.1312665,inf,inf,inf,inf,1,1,1,1,2,0,2,1,4,0,1,1,1,0
659286310,659285705,45936231,42.3585499,-71.08724959999999,0.13933131,-0.98681724,4.610463,-5.0257313e-05,0.00017889676,0.0,-0.03868162,0.07841945,-0.0035363457,-0.015392425,-0.00027487415,-0.058527347,0.14861168,-0.022743218,0.004755755,-0.022877572,2.728767,0.053713392,5.8792515,0.10599089,0.70444506,0.47571734,0.22045319,0.13064267,inf,inf,inf,inf,1,1,1,1,2,0,2,1,4,0,1,1,1,0
659794417,659793370,45936231,42.3585499,-71.08724959999999,0.14889555,-0.94159234,4.6134534,-5.0257313e-05,0.00017889676,0.0,-0.03612129,0.0800834,-0.0017966621,-0.00587003,-0.00027487415,-0.058527347,0.14861168,0.031344242,-0.004490232,0.006834929,2.7289457,0.053713392,5.8792515,0.10104084,0.69286203,0.47218472,0.21678832,0.12969178,inf,inf,inf,inf,1,1,1,1,2,0,2,1,4,0,1,1,1,0
660291738,660291084,45936231,42.3585499,-71.08724959999999,0.1568143,-0.8831995,4.6197467,-5.0257313e-05,0.00017889676,0.0,-0.038500734,0.08647557,0.002033907,0.003552583,-0.00027487415,-0.058527347,0.14861168,-0.025761545,0.00878074,0.032608647,2.7290566,0.053713392,5.8792515,0.1,0.70834583,0.47515956,0.2231325,0.13076553,inf,inf,inf,inf,1,1,1,1,2,0,2,1,4,0,1,1,1,0
660789333,660788791,45936231,42.3585499,-71.08724959999999,0.16575032,-0.8672531,4.619252,-5.0257313e-05,0.00017889676,0.0,-0.038126376,0.0707536,0.0034927826,0.0025023825,-0.00027487415,-0.058527347,0.14861168,-0.009140569,-0.008630561,-0.079081096,2.7290022,0.053713392,5.8792515,0.10698223,0.68487114,0.47203824,0.21215191,0.12893452,inf,inf,inf,inf,1,1,1,1,2,0,2,1,4,0,1,1,1,0
661287063,661286502,45936231,42.3585499,-71.08724959999999,0.16740619,-0.810687,4.617787,-5.0257313e-05,0.00017889676,0.0,-0.04552728,0.077119775,0.009974505,0.0049713347,-0.00027487415,-0.058527347,0.14861168,-0.02487099,0.011424432,0.046847556,2.7291605,0.053713392,5.8792515,0.1,0.70627695,0.47687444,0.2235797,0.13101563,inf,inf,inf,inf,1,1,1,1,2,0,2,1,4,0,1,1,1,0
661784828,661784212,45936231,42.3585499,-71.08724959999999,0.08898094,-0.694654,4.607046,-5.0257313e-05,0.00017889676,0.0,-0.08260153,0.10633494,-0.00031428566,-0.013181608,-0.00027487415,-0.058527347,0.14861168,-0.015943665,0.009623844,0.016221134,2.729341,0.053713392,5.8792515,0.1,0.71139085,0.48175353,0.2319844,0.13291992,inf,inf,inf,inf,1,1,1,1,2,0,2,1,4,0,1,1,1,0
662292451,662291876,45936231,42.3585499,-71.08724959999999,0.06541053,-0.62366,4.6020937,-5.0257313e-05,0.00017889676,0.0,-0.08194222,0.10970753,0.0003856491,-0.011619961,-0.00027487415,-0.058527347,0.14861168,-0.03312339,0.023108838,0.014706168,2.729457,0.053713392,5.8792515,0.1,0.727332,0.480504,0.2350758,0.13291188,inf,inf,inf,inf,1,1,1,1,2,0,2,1,4,0,1,1,1,0
662790112,662789586,45936231,42.3585499,-71.08724959999999,0.031641144,-0.56031865,4.5967903,-5.0257313e-05,0.00017889676,0.0,-0.089372344,0.10885418,0.0035123448,-0.008647236,-0.00027487415,-0.058527347,0.14861168,-0.02667742,-0.0043513,0.04616567,2.7295737,0.053713392,5.8792515,0.10203695,0.73406553,0.48514414,0.24200974,0.13450503,inf,inf,inf,inf,1,1,1,1,2,0,2,1,4,0,1,1,1,0
663287830,663287296,45936231,42.3585499,-71.08724959999999,-0.025784045,-0.47548866,4.589192,-5.0257313e-05,0.00017889676,0.0,-0.10825014,0.11993561,0.003336115,-0.012344427,-0.00027487415,-0.058527347,0.14861168,-0.028299717,0.017327001,0.009870693,2.7297025,0.053713392,5.8792515,0.1,0.7673369,0.4908153,0.2548809,0.13645332,inf,inf,inf,inf,1,1,1,1,2,0,2,1,4,0,1,1,1,0
663785541,663785005,45936231,42.3585499,-71.08724959999999,-0.078184776,-0.38676772,4.575629,-5.0257313e-05,0.00017889676,0.0,-0.11915827,0.13000451,-0.002241223,-0.021626629,-0.00027487415,-0.058527347,0.14861168,-0.022019813,0.028061075,-0.046149224,2.7297828,0.053713392,5.8792515,0.10164261,0.7737219,0.49502954,0.258913,0.13756967,inf,inf,inf,inf,1,1,1,1,2,0,2,1,4,0,1,1,1,0
664283562,664282715,45936231,42.3585499,-71.08724959999999,-0.10590148,-0.31195572,4.564539,-5.0257313e-05,0.00017889676,0.0,-0.11663207,0.13216038,-0.0068901516,-0.025749523,-0.00027487415,-0.058527347,0.14861168,-0.037504543,0.005745622,-0.016224895,2.7299376,0.053713392,5.8792515,0.1,0.8129642,0.495872,0.2725232,0.13855061,inf,inf,inf,inf,1,1,1,1,2,0,2,1,4,0,1,1,1,0
664790939,664790378,45936231,42.3585499,-71.08724959999999,-0.22420375,-0.1702516,4.5577564,-5.0257313e-05,0.00017889676,0.0,-0.15295152,0.1592259,-0.0022331995,-0.014400983,-0.00027487415,-0.058527347,0.14861168,-0.025458341,0.0068807593,0.056928366,2.7305403,0.053713392,5.8792515,0.10439396,0.8242548,0.5012955,0.277065,0.13976793,inf,inf,inf,inf,1,1,1,1,2,0,2,1,4,0,1,1,1,0
665288676,665288087,45936231,42.3585499,-71.08724959999999,-0.21230008,-0.11398218,4.558034,-5.0257313e-05,0.00017889676,0.0,-0.12159068,0.14514504,-0.0004709312,-0.007507082,-0.00027487415,-0.058527347,0.14861168,-0.014411897,0.001183897,0.005684483,2.730933,0.053713392,5.8792515,0.10658264,0.79583806,0.4954306,0.24910212,0.13608572,inf,inf,inf,inf,1,1,1,1,2,0,2,1,4,0,1,1,1,0
665786485,665785796,45936231,42.3585499,-71.08724959999999,-0.10668879,-0.12274952,4.561354,-5.0257313e-05,0.00017889676,0.0,-0.070688315,0.11396936,0.009696043,0.0056166756,-0.00027487415,-0.058527347,0.14861168,-0.019969838,0.019163098,-0.00043301712,2.731263,0.053713392,5.8792515,0.10511303,0.7953534,0.49277923,0.2502804,0.13574998,inf,inf,inf,inf,1,1,1,1,2,0,2,1,4,0,1,1,1,0
666294000,666293459,45936231,42.3585499,-71.08724959999999,-0.043858603,-0.13810138,4.567562,-5.0257313e-05,0.00017889676,0.0,-0.04805631,0.08713985,0.0052043954,0.0039207046,-0.00027487415,-0.058527347,0.14861168,-0.018206581,0.011618143,0.004128332,2.7316723,0.053713392,5.8792515,0.104637146,0.8146646,0.49546957,0.25366506,0.13614617,inf,inf,inf,inf,1,1,1,1,2,0,2,1,4,0,1,1,1,0
666791774,666791167,45936231,42.3585499,-71.08724959999999,-0.037713476,-0.11362486,4.57217,-5.0257313e-05,0.00017889676,0.0,-0.04045101,0.078307,-0.003965339,-0.0025748138,-0.00027487415,-0.058527347,0.14861168,0.014091432,-0.004054433,-0.073970266,2.7314732,0.053713392,5.8792515,0.1,0.7938667,0.49410206,0.2443578,0.13505349,inf,inf,inf,inf,1,1,1,1,2,0,2,1,4,0,1,1,1,0
667289475,667288875,45936231,42.3585499,-71.08724959999999,-0.07890373,-0.07302463,4.5752044,-5.0257313e-05,0.00017889676,0.0,-0.0520005,0.07480652,-0.006732764,0.0010122437,-0.00027487415,-0.058527347,0.14861168,0.0013407966,-0.007998536,0.0078222025,2.7313352,0.053713392,5.8792515,0.109419346,0.81902975,0.4974321,0.25357422,0.13619871,inf,inf,inf,inf,1,1,1,1,2,0,2,1,4,0,1,1,1,0
667787206,667786583,45936231,42.3585499,-71.08724959999999,-0.07299508,-0.06290451,4.588383,-5.0257313e-05,0.00017889676,0.0,-0.043249153,0.060294077,0.006942395,0.021565568,-0.00027487415,-0.058527347,0.14861168,-0.015036614,-0.039108083,0.084706746,2.7311945,0.053713392,5.8792515,0.10394716,0.80404836,0.49255472,0.24869242,0.13506588,inf,inf,inf,inf,1,1,1,1,2,0,2,1,4,0,1,1,1,0
668284899,668284291,45936231,42.3585499,-71.08724959999999,-0.040190637,-0.07220179,4.5871415,-5.0257313e-05,0.00017889676,0.0,-0.02645015,0.041289397,0.015437409,0.016848965,-0.00027487415,-0.058527347,0.14861168,0.016133158,-0.0061744214,0.017392538,2.7309768,0.053713392,5.8792515,0.1,0.8059399,0.491424,0.24427584,0.13424642,inf,inf,inf,inf,1,1,1,1,2,0,2,1,4,0,1,1,1,0
668792852,668791953,45936231,42.3585499,-71.08724959999999,-0.027474845,-0.090730414,4.5903482,-5.0257313e-05,0.00017889676,0.0,-0.023041228,0.023631228,0.013364863,0.011532737,-0.00027487415,-0.058527347,0.14861168,-0.0003906987,-0.010127308,-0.0035864525,2.7310162,0.053713392,5.8792515,0.1,0.79003954,0.49162644,0.23907946,0.13383983,inf,inf,inf,inf,1,1,1,1,2,0,2,1,4,0,1,1,1,0
669290275,669289661,45936231,42.3585499,-71.08724959999999,0.0055390834,-0.10732827,4.5966177,-5.0257313e-05,0.00017889676,0.0,-0.011997632,0.010638825,0.0033796835,0.004467393,-0.00027487415,-0.058527347,0.14861168,0.00409469,-0.01989968,-0.05610055,2.7309287,0.053713392,5.8792515,0.100886345,0.8073794,0.49372014,0.24554405,0.13465866,inf,inf,inf,inf,1,1,1,1,2,0,2,1,4,0,1,1,1,0
669787992,669787368,45936231,42.3585499,-71.08724959999999,0.042301383,-0.12365159,4.6076875,-5.0257313e-05,0.00017889676,0.0,-4.0599094e-05,-0.0013379836,0.0042556114,0.012635386,-0.00027487415,-0.058527347,0.14861168,0.010402579,-0.02267836,0.005709932,2.7305996,0.053713392,5.8792515,0.1,0.80052793,0.49032888,0.24671842,0.13439378,inf,inf,inf,inf,1,1,1,1,2,0,2,1,4,0,1,1,1,0
670285619,670285075,45936231,42.3585499,-71.08724959999999,0.08177307,-0.13547519,4.609065,-5.0257313e-05,0.00017889676,0.0,0.012680083,-0.012312769,0.012781968,0.014106149,-0.00027487415,-0.058527347,0.14861168,-0.013421303,0.00031025824,-0.025888793,2.7302601,0.053713392,5.8792515,0.1,0.8204051,0.4928698,0.25368464,0.13533121,inf,inf,inf,inf,1,1,1,1,2,0,2,1,4,0,1,1,1,0
670783340,670782782,45936231,42.3585499,-71.08724959999999,0.099679716,-0.12125944,4.6227584,-5.0257313e-05,0.00017889676,0.0,0.008054051,-0.009691873,0.024919903,0.028602986,-0.00027487415,-0.058527347,0.14861168,-0.010534869,-0.019763317,0.0479733,2.7301142,0.053713392,5.8792515,0.1,0.8040066,0.4927883,0.24841736,0.13500993,inf,inf,inf,inf,1,1,1,1,2,0,2,1,4,0,1,1,1,0
671290982,671290443,45936231,42.3585499,-71.08724959999999,0.13270298,-0.08214496,4.6266556,-5.0257313e-05,0.00017889676,0.0,0.012526915,0.005522322,0.015935577,0.0116257835,-0.00027487415,-0.058527347,0.14861168,0.021046301,0.03984259,0.020733848,2.7300868,0.053713392,5.8792515,0.1,0.78376794,0.48748428,0.23020874,0.13212664,inf,inf,inf,inf,1,1,1,1,2,0,2,1,4,0,1,1,1,0
671788740,671788150,45936231,42.3585499,-71.08724959999999,0.18236823,-0.10273857,4.631365,-5.0257313e-05,0.00017889676,0.0,0.026392894,-0.0027153136,0.0119662685,0.0077850823,-0.00027487415,-0.058527347,0.14861168,0.018461518,-0.00039841337,-0.09998442,2.7298393,0.053713392,5.8792515,0.102705956,0.75903136,0.48002207,0.22122447,0.13008896,inf,inf,inf,inf,1,1,1,1,2,0,2,1,4,0,1,1,1,0
672286415,672285856,45936231,42.3585499,-71.08724959999999,0.15668559,-0.102482304,4.6391635,-5.0257313e-05,0.00017889676,0.0,0.010026297,-0.0020198808,0.007262171,0.007836684,-0.00027487415,-0.058527347,0.14861168,-0.013130721,-0.019235484,0.035028722,2.7296875,0.053713392,5.8792515,0.1,0.7610318,0.47927764,0.22076978,0.12984157,inf,inf,inf,inf,1,1,1,1,2,0,2,1,4,0,1,1,1,0
672794102,672793517,45936231,42.3585499,-71.08724959999999,0.11198508,-0.112799056,4.6388454,-5.0257313e-05,0.00017889676,0.0,-0.017014815,-0.0044726776,0.018224217,0.012306059,-0.00027487415,-0.058527347,0.14861168,-0.0348848,-0.0056413994,0.029325893,2.729702,0.053713392,5.8792515,0.1,0.7491954,0.4806673,0.22179662,0.13038741,inf,inf,inf,inf,1,1,1,1,2,0,2,1,4,0,1,1,1,0
673292340,673291223,45936231,42.3585499,-71.08724959999999,0.12080768,-0.1470064,4.633779,-5.0257313e-05,0.00017889676,0.0,-0.01752942,-0.016435836,0.018272769,0.0026284214,-0.00027487415,-0.058527347,0.14861168,-0.0046551623,0.00021204047,-0.013995858,2.7294335,0.053713392,5.8792515,0.1,0.75318706,0.47619417,0.222761,0.12981772,inf,inf,inf,inf,1,1,1,1,2,0,2,1,4,0,1,1,1,0
673789522,673788929,45936231,42.3585499,-71.08724959999999,0.12624101,-0.18742211,4.615259,-5.0257313e-05,0.00017889676,0.0,-0.018898888,-0.024204662,0.0013260341,-0.025038088,-0.00027487415,-0.058527347,0.14861168,-0.01840827,-0.0015029276,0.0015265589,2.7291288,0.053713392,5.8792515,0.1,0.73685086,0.4758698,0.22073337,0.12974225,inf,inf,inf,inf,1,1,1,1,2,0,2,1,4,0,1,1,1,0
674287209,674286634,45936231,42.3585499,-71.08724959999999,0.14644212,-0.23450065,4.605391,-5.0257313e-05,0.00017889676,0.0,-0.012302015,-0.037473343,-0.00413714,-0.026122633,-0.00027487415,-0.058527347,0.14861168,-0.02565525,-0.010046952,0.019681456,2.7288897,0.053713392,5.8792515,0.100717545,0.74987316,0.47871646,0.22806694,0.13108718,inf,inf,inf,inf,1,1,1,1,2,0,2,1,4,0,1,1,1,0
674784932,674784340,45936231,42.3585499,-71.08724959999999,0.15298302,-0.26793608,4.595298,-5.0257313e-05,0.00017889676,0.0,-0.014071455,-0.04132699,-0.00084919826,-0.020164078,-0.00027487415,-0.058527347,0.14861168,-0.019180728,-5.009167e-05,0.025837129,2.7287195,0.053713392,5.8792515,0.10057831,0.72792965,0.47710612,0.21981798,0.13010746,inf,inf,inf,inf,1,1,1,1,2,0,2,1,4,0,1,1,1,0
675292626,675292000,45936231,42.3585499,-71.08724959999999,0.17406611,-0.29734147,4.60517,-5.0257313e-05,0.00017889676,0.0,-0.014536551,-0.043502733,0.005217874,0.00063507725,-0.00027487415,-0.058527347,0.14861168,-0.029207407,0.004892651,0.008221811,2.7284338,0.053713392,5.8792515,0.11019087,0.7368063,0.47495016,0.22325721,0.13018811,inf,inf,inf,inf,1,1,1,1,2,0,2,1,4,0,1,1,1,0
675790235,675789705,45936231,42.3585499,-71.08724959999999,0.22640373,-0.3553942,4.6084957,-5.0257313e-05,0.00017889676,0.0,-0.0044977553,-0.05201822,6.865804e-05,-0.0016477325,-0.00027487415,-0.058527347,0.14861168,0.015652966,0.0017266707,-0.10720447,2.7282593,0.053713392,5.8792515,0.10559559,0.7169503,0.47356203,0.21639116,0.12931255,inf,inf,inf,inf,1,1,1,1,2,0,2,1,4,0,1,1,1,0
676287954,676287410,45936231,42.3585499,-71.08724959999999,0.28694093,-0.38651296,4.610134,-5.0257313e-05,0.00017889676,0.0,0.0051840963,-0.046647914,-0.0051608486,-0.0042488454,-0.00027487415,-0.058527347,0.14861168,-0.0063350713,0.0039507747,-0.009180002,2.72801,0.053713392,5.8792515,0.10317421,0.70769304,0.46933314,0.20692852,0.12724957,inf,inf,inf,inf,1,1,1,1,2,0,2,1,4,0,1,1,1,0
676785652,676785115,45936231,42.3585499,-71.08724959999999,0.361993,-0.41405493,4.6195164,-5.0257313e-05,0.00017889676,0.0,0.01248629,-0.0360377,0.0071448977,0.014453443,-0.00027487415,-0.058527347,0.14861168,0.00871526,0.0054994174,-0.11622593,2.7277002,0.053713392,5.8792515,0.10089588,0.6960474,0.46996108,0.2077605,0.12764637,inf,inf,inf,inf,1,1,1,1,2,0,2,1,4,0,1,1,1,0
677293361,677292773,45936231,42.3585499,-71.08724959999999,0.42738166,-0.45265236,4.6210923,-5.0257313e-05,0.00017889676,0.0,0.014472265,-0.03353872,0.012335864,0.012146238,-0.00027487415,-0.058527347,0.14861168,-0.003365387,0.0073003937,0.023472615,2.727456,0.053713392,5.8792515,0.1,0.7117072,0.47034967,0.2175232,0.12903266,inf,inf,inf,inf,1,1,1,1,2,0,2,1,4,0,1,1,1,0
677791875,677790478,45936231,42.3585499,-71.08724959999999,0.52189964,-0.5191923,4.621151,-5.0257313e-05,0.00017889676,0.0,0.025379429,-0.04090207,0.009080282,0.003999209,-0.00027487415,-0.058527347,0.14861168,-0.005185465,-0.014230598,0.021602858,2.727384,0.053713392,5.8792515,0.1,0.7056457,0.473001,0.22092727,0.13012221,inf,inf,inf,inf,1,1,1,1,2,0,2,1,4,0,1,1,1,0
678288749,678288182,45936231,42.3585499,-71.08724959999999,0.66310877,-0.6180542,4.618278,-5.0257313e-05,0.00017889676,0.0,0.053086653,-0.055244125,-0.0030860822,-0.009630841,-0.00027487415,-0.058527347,0.14861168,0.02024392,-0.0085657425,-0.06748151,2.7272556,0.053713392,5.8792515,0.1,0.7097031,0.47334334,0.21958643,0.1299504,inf,inf,inf,inf,1,1,1,1,2,0,2,1,4,0,1,1,1,0
678786563,678785886,45936231,42.3585499,-71.08724959999999,0.79941386,-0.69977427,4.6126156,-5.0257313e-05,0.00017889676,0.0,0.07408204,-0.059582137,-0.0021495484,-0.01075864,-0.00027487415,-0.058527347,0.14861168,0.032290857,-0.027085058,-0.2107768,2.7271316,0.053713392,5.8792515,0.1,0.6997974,0.47479182,0.21919052,0.13032347,inf,inf,inf,inf,1,1,1,1,2,0,2,1,4,0,1,1,1,0
679284124,679283590,45936231,42.3585499,-71.08724959999999,0.8804169,-0.73163277,4.607739,-5.0257313e-05,0.00017889676,0.0,0.070866816,-0.046896834,0.011798885,0.0032326737,-0.00027487415,-0.058527347,0.14861168,-0.014777753,-0.013689605,0.017051222,2.7270453,0.053713392,5.8792515,0.101240635,0.6953356,0.47233075,0.21087244,0.12872714,inf,inf,inf,inf,1,1,1,1,2,0,2,1,4,0,1,1,1,0
679791886,679791248,45936231,42.3585499,-71.08724959999999,0.949063,-0.77311134,4.61091,-5.0257313e-05,0.00017889676,0.0,0.06368056,-0.041336484,0.0039779013,0.00086551433,-0.00027487415,-0.058527347,0.14861168,-0.008092192,-0.0007504087,0.032206874,2.7268584,0.053713392,5.8792515,0.1,0.679943,0.467708,0.20677195,0.1275534,inf,inf,inf,inf,1,1,1,1,2,0,2,1,4,0,1,1,1,0
680289515,680288951,45936231,42.3585499,-71.08724959999999,1.0491903,-0.8322529,4.612633,-5.0257313e-05,0.00017889676,0.0,0.073604,-0.043124564,0.0014278064,0.00013073569,-0.00027487415,-0.058527347,0.14861168,-0.01747161,0.0078496905,0.010075939,2.7266798,0.053713392,5.8792515,0.10417509,0.6944994,0.47124597,0.21501522,0.12914169,inf,inf,inf,inf,1,1,1,1,2,0,2,1,4,0,1,1,1,0
680787182,680786655,45936231,42.3585499,-71.08724959999999,1.1457899,-0.8679773,4.623999,-5.0257313e-05,0.00017889676,0.0,0.074201286,-0.03507568,0.008355863,0.014105155,-0.00027487415,-0.058527347,0.14861168,-0.04214207,0.0077831475,-0.016483128,2.726585,0.053713392,5.8792515,0.10394812,0.6782037,0.47019917,0.20901375,0.12831116,inf,inf,inf,inf,1,1,1,1,2,0,2,1,4,0,1,1,1,0
681285005,681284358,45936231,42.3585499,-71.08724959999999,1.247094,-0.877152,4.6378345,-5.0257313e-05,0.00017889676,0.0,0.067705244,-0.015719775,0.016156552,0.025467157,-0.00027487415,-0.058527347,0.14861168,-0.01937615,0.1275239,0.039337095,2.7264411,0.053713392,5.8792515,0.1,0.69340587,0.46960738,0.21710522,0.12925565,inf,inf,inf,inf,1,1,1,1,2,0,2,1,4,0,1,1,1,0
681792551,681792015,45936231,42.3585499,-71.08724959999999,1.3322769,-0.9167293,4.644093,-5.0257313e-05,0.00017889676,0.0,0.06194693,-0.013605596,0.012580806,0.018660635,-0.00027487415,-0.058527347,0.14861168,-0.008972752,0.008050721,0.028510775,2.7262487,0.053713392,5.8792515,0.10019159,0.683801,0.47136497,0.21561822,0.12948728,inf,inf,inf,inf,1,1,1,1,2,0,2,1,4,0,1,1,1,0
682290314,682289718,45936231,42.3585499,-71.08724959999999,1.45317,-0.98861545,4.6450934,-5.0257313e-05,0.00017889676,0.0,0.079410344,-0.028870324,0.01738685,0.013792455,-0.00027487415,-0.058527347,0.14861168,0.0032811076,0.0036151707,0.027947154,2.7260303,0.053713392,5.8792515,0.1,0.70258677,0.47583613,0.22500356,0.13128279,inf,inf,inf,inf,1,1,1,1,2,0,2,1,4,0,1,1,1,0
682787994,682787421,45936231,42.3585499,-71.08724959999999,1.5605086,-1.0299835,4.6427593,-5.0257313e-05,0.00017889676,0.0,0.084105,-0.02663193,0.016136123,0.0043945108,-0.00027487415,-0.058527347,0.14861168,-0.028089674,0.016087247,-0.01968821,2.7258346,0.053713392,5.8792515,0.1,0.68562984,0.47492322,0.21749356,0.13034233,inf,inf,inf,inf,1,1,1,1,2,0,2,1,4,0,1,1,1,0
683285815,683285123,45936231,42.3585499,-71.08724959999999,1.6155635,-1.0499218,4.6327415,-5.0257313e-05,0.00017889676,0.0,0.063574314,-0.016342705,0.009867763,-0.009152527,-0.00027487415,-0.058527347,0.14861168,-0.015253526,0.030510724,0.015346137,2.7254784,0.053713392,5.8792515,0.1,0.7043175,0.4747184,0.22622998,0.13128458,inf,inf,inf,inf,1,1,1,1,2,0,2,1,4,0,1,1,1,0
683793309,683792780,45936231,42.3585499,-71.08724959999999,1.6619649,-1.0758232,4.611443,-5.0257313e-05,0.00017889676,0.0,0.05554027,-0.013369208,0.0040026624,-0.026319481,-0.00027487415,-0.058527347,0.14861168,-0.019311575,0.017067203,0.02343444,2.725235,0.053713392,5.8792515,0.1,0.6933727,0.47626,0.22245094,0.13118894,inf,inf,inf,inf,1,1,1,1,2,0,2,1,4,0,1,1,1,0
684291016,684290482,45936231,42.3585499,-71.08724959999999,1.7248976,-1.0794848,4.6084585,-5.0257313e-05,0.00017889676,0.0,0.051120546,-0.0005483317,0.010668826,-0.01096257,-0.00027487415,-0.058527347,0.14861168,-0.022356415,0.0041441517,-0.026887294,2.724874,0.053713392,5.8792515,0.1,0.7057269,0.47846642,0.22587527,0.13177772,inf,inf,inf,inf,1,1,1,1,2,0,2,1,4,0,1,1,1,0
684788736,684788184,45936231,42.3585499,-71.08724959999999,1.7746866,-1.0769199,4.596371,-5.0257313e-05,0.00017889676,0.0,0.033525817,0.014821697,0.006043363,-0.019465076,-0.00027487415,-0.058527347,0.14861168,-0.0787783,0.021605825,-0.006640338,2.724419,0.053713392,5.8792515,0.1,0.6665283,0.47006032,0.20255934,0.12735005,inf,inf,inf,inf,1,1,1,1,2,0,2,1,4,0,1,1,1,0
685286483,685285886,45936231,42.3585499,-71.08724959999999,1.8252417,-1.1133124,4.5797234,-5.0257313e-05,0.00017889676,0.0,0.025705505,0.008690986,-0.0017040957,-0.028435562,-0.00027487415,-0.058527347,0.14861168,-0.029514065,0.027560495,0.021927707,2.7241995,0.053713392,5.8792515,0.106658936,0.67243165,0.46616617,0.20385878,0.12678333,inf,inf,inf,inf,1,1,1,1,2,0,2,1,4,0,1,1,1,0
685784120,685783588,45936231,42.3585499,-71.08724959999999,1.8765451,-1.1536319,4.5831814,-5.0257313e-05,0.00017889676,0.0,0.020859336,0.0037916615,-0.002444771,-0.015237515,-0.00027487415,-0.058527347,0.14861168,0.021533588,-0.00032741614,-0.034002546,2.7241316,0.053713392,5.8792515,0.10364199,0.6695506,0.4689131,0.20883729,0.12804759,inf,inf,inf,inf,1,1,1,1,2,0,2,1,4,0,1,1,1,0
686291832,686291243,45936231,42.3585499,-71.08724959999999,1.9405311,-1.1732147,4.5789866,-5.0257313e-05,0.00017889676,0.0,0.020910785,0.0049774144,0.0014586226,-0.009737037,-0.00027487415,-0.058527347,0.14861168,-0.03355802,0.009146417,0.028790714,2.7237747,0.053713392,5.8792515,0.1,0.68236506,0.47191983,0.21360102,0.1290316,inf,inf,inf,inf,1,1,1,1,2,0,2,1,4,0,1,1,1,0
686789478,686788945,45936231,42.3585499,-71.08724959999999,2.0162551,-1.1932234,4.567922,-5.0257313e-05,0.00017889676,0.0,0.020962816,0.008719626,-0.002144233,-0.018053362,-0.00027487415,-0.058527347,0.14861168,-0.0070020403,-0.0025532427,0.015111877,2.7235808,0.053713392,5.8792515,0.1,0.68281865,0.47567084,0.21950297,0.13056955,inf,inf,inf,inf,1,1,1,1,2,0,2,1,4,0,1,1,1,0
687287267,687286646,45936231,42.3585499,-71.08724959999999,2.0400314,-1.1851339,4.5654683,-5.0257313e-05,0.00017889676,0.0,0.0072316113,0.019849172,0.0013269443,-0.007881028,-0.00027487415,-0.058527347,0.14861168,-0.05735768,0.014298821,0.09349526,2.7236106,0.053713392,5.8792515,0.11127949,0.70285225,0.475493,0.2280438,0.13152026,inf,inf,inf,inf,1,1,1,1,2,0,2,1,4,0,1,1,1,0
687795008,687794301,45936231,42.3585499,-71.08724959999999,2.105275,-1.189607,4.5797935,-5.0257313e-05,0.00017889676,0.0,0.0077149835,0.022883274,0.009040791,0.01266179,-0.00027487415,-0.058527347,0.14861168,-0.040213395,0.024197556,0.003744368,2.7235067,0.053713392,5.8792515,0.10524511,0.70150954,0.4792873,0.23002061,0.1325219,inf,inf,inf,inf,1,1,1,1,2,0,2,1,4,0,1,1,1,0
688282632,688282047,45936231,42.3585499,-71.08724959999999,2.1223953,-1.2113317,4.595679,-5.0257313e-05,0.00017889676,0.0,-0.008638617,0.019668086,0.0047415746,0.015684634,-0.00027487415,-0.058527347,0.14861168,-0.021235133,0.0039966884,-0.057230037,2.7232378,0.053713392,5.8792515,0.10093212,0.71188813,0.4800926,0.23095924,0.13261461,inf,inf,inf,inf,1,1,1,1,2,0,2,1,4,0,1,1,1,0
688790269,688789702,45936231,42.3585499,-71.08724959999999,2.1212082,-1.2178594,4.6020455,-5.0257313e-05,0.00017889676,0.0,-0.026053047,0.022483328,-0.0035193397,0.0065426477,-0.00027487415,-0.058527347,0.14861168,-0.03933102,0.005115408,0.02983188,2.7232206,0.053713392,5.8792515,0.102908134,0.7071987,0.48322627,0.23079576,0.13321759,inf,inf,inf,inf,1,1,1,1,2,0,2,1,4,0,1,1,1,0
689287973,689287403,45936231,42.3585499,-71.08724959999999,2.175342,-1.2206368,4.6058526,-5.0257313e-05,0.00017889676,0.0,-0.011998154,0.025777353,0.0013110887,0.009962678,-0.00027487415,-0.058527347,0.14861168,-0.041811403,0.03545518,0.058477644,2.7230873,0.053713392,5.8792515,0.1,0.69181377,0.4730483,0.21274862,0.12915437,inf,inf,inf,inf,1,1,1,1,2,0,2,1,4,0,1,1,1,0
689785730,689785103,45936231,42.3585499,-71.08724959999999,2.2069292,-1.1921668,4.620721,-5.0257313e-05,0.00017889676,0.0,-0.013299816,0.03912148,0.013811144,0.028201642,-0.00027487415,-0.058527347,0.14861168,-0.037736397,0.0114104925,0.17205758,2.7228994,0.053713392,5.8792515,0.104874134,0.6777182,0.47218883,0.20849307,0.12849,inf,inf,inf,inf,1,1,1,1,2,0,2,1,4,0,1,1,1,0
690293359,690292757,45936231,42.3585499,-71.08724959999999,2.2211394,-1.1962194,4.642596,-5.0257313e-05,0.00017889676,0.0,-0.019300148,0.03723907,0.027979225,0.044464912,-0.00027487415,-0.058527347,0.14861168,0.0082812235,0.014587218,0.0013341941,2.7228174,0.053713392,5.8792515,0.10423803,0.6896669,0.47476628,0.21302357,0.12930404,inf,inf,inf,inf,1,1,1,1,2,0,2,1,4,0,1,1,1,0
690791181,690790457,45936231,42.3585499,-71.08724959999999,2.2931123,-1.2330935,4.6702757,-5.0257313e-05,0.00017889676,0.0,-0.0025714405,0.024157928,0.029365685,0.046325207,-0.00027487415,-0.058527347,0.14861168,-0.030369299,-0.0052402993,0.05758181,2.7228413,0.053713392,5.8792515,0.1,0.68166244,0.47168905,0.21369544,0.12906903,inf,inf,inf,inf,1,1,1,1,2,0,2,1,4,0,1,1,1,0
691288690,691288157,45936231,42.3585499,-71.08724959999999,2.378994,-1.2995154,4.665958,-5.0257313e-05,0.00017889676,0.0,0.012274542,0.0061362237,0.01797503,0.013299906,-0.00027487415,-0.058527347,0.14861168,-0.025532126,0.021259774,0.03302798,2.722854,0.053713392,5.8792515,0.1,0.68412876,0.4710273,0.21145456,0.1285027,inf,inf,inf,inf,1,1,1,1,2,0,2,1,4,0,1,1,1,0
691786449,691785857,45936231,42.3585499,-71.08724959999999,2.430129,-1.3334402,4.65505,-5.0257313e-05,0.00017889676,0.0,0.008193549,0.003965101,0.022492988,0.0030269516,-0.00027487415,-0.058527347,0.14861168,-0.003995823,0.0023221534,-0.024584156,2.7228553,0.053713392,5.8792515,0.1,0.67306775,0.47173646,0.21075366,0.12868173,inf,inf,inf,inf,1,1,1,1,2,0,2,1,4,0,1,1,1,0
692284180,692283556,45936231,42.3585499,-71.08724959999999,2.5097027,-1.3861475,4.644932,-5.0257313e-05,0.00017889676,0.0,0.009263562,-0.005170646,0.023557471,-0.0028565018,-0.00027487415,-0.058527347,0.14861168,-0.0121777635,-0.019594718,-0.041120045,2.722978,0.053713392,5.8792515,0.1,0.68974954,0.47549626,0.21952684,0.13032447,inf,inf,inf,inf,1,1,1,1,2,0,2,1,4,0,1,1,1,0
692791831,692791210,45936231,42.3585499,-71.08724959999999,2.615023,-1.4660535,4.637964,-5.0257313e-05,0.00017889676,0.0,0.026362117,-0.02399822,0.017322103,-0.010440071,-0.00027487415,-0.058527347,0.14861168,-0.031174136,0.006366287,0.11731669,2.7228844,0.053713392,5.8792515,0.1,0.6804452,0.47293958,0.21825074,0.12995611,inf,inf,inf,inf,1,1,1,1,2,0,2,1,4,0,1,1,1,0
693289491,693288909,45936231,42.3585499,-71.08724959999999,2.6892128,-1.5413696,4.6232114,-5.0257313e-05,0.00017889676,0.0,0.029253464,-0.035220023,0.012474773,-0.022109816,-0.00027487415,-0.058527347,0.14861168,0.00028421028,0.0030564996,-0.012082689,2.7228456,0.053713392,5.8792515,0.1,0.6964212,0.47608674,0.22492571,0.13116205,inf,inf,inf,inf,1,1,1,1,2,0,2,1,4,0,1,1,1,0
693787144,693786608,45936231,42.3585499,-71.08724959999999,2.7497213,-1.6110364,4.6055107,-5.0257313e-05,0.00017889676,0.0,0.023003321,-0.045415003,0.017913567,-0.022139145,-0.00027487415,-0.058527347,0.14861168,-0.01287609,-0.0076080863,0.003489129,2.722779,0.053713392,5.8792515,0.1,0.68813556,0.47762278,0.2235977,0.13143629,inf,inf,inf,inf,1,1,1,1,2,0,2,1,4,0,1,1,1,0
694294875,694294261,45936231,42.3585499,-71.08724959999999,2.8118868,-1.6917312,4.5794325,-5.0257313e-05,0.00017889676,0.0,0.02201788,-0.05660811,0.008367602,-0.039106064,-0.00027487415,-0.058527347,0.14861168,-0.014171158,-0.0065963785,-0.0039936374,2.7226815,0.053713392,5.8792515,0.1,0.6995871,0.47550616,0.2250985,0.13113953,inf,inf,inf,inf,1,1,1,1,2,0,2,1,4,0,1,1,1,0
694792555,694791959,45936231,42.3585499,-71.08724959999999,2.9169884,-1.7851644,4.5524635,-5.0257313e-05,0.00017889676,0.0,0.03122168,-0.06903073,-0.007612581,-0.055667207,-0.00027487415,-0.058527347,0.14861168,-0.060895897,-0.008478478,-0.00018152074,2.722567,0.053713392,5.8792515,0.101830006,0.68557465,0.47525185,0.22013837,0.13061382,inf,inf,inf,inf,1,1,1,1,2,0,2,1,4,0,1,1,1,0
695290192,695289658,45936231,42.3585499,-71.08724959999999,3.028738,-1.8830167,4.5366883,-5.0257313e-05,0.00017889676,0.0,0.033686437,-0.080225654,-0.0076569924,-0.04370543,-0.00027487415,-0.058527347,0.14861168,-0.027633088,-0.0039420286,0.015216646,2.7224166,0.053713392,5.8792515,0.10943651,0.7080291,0.47988185,0.23062187,0.13244951,inf,inf,inf,inf,1,1,1,1,2,0,2,1,4,0,1,1,1,0
695787885,695787356,45936231,42.3585499,-71.08724959999999,3.1057162,-1.9559281,4.525029,-5.0257313e-05,0.00017889676,0.0,0.026852857,-0.08058661,-0.013701719,-0.039371785,-0.00027487415,-0.058527347,0.14861168,-0.02166221,-0.021255048,0.026888773,2.7222316,0.053713392,5.8792515,0.10684204,0.69446343,0.47997156,0.22527866,0.13197602,inf,inf,inf,inf,1,1,1,1,2,0,2,1,4,0,1,1,1,0
696285580,696285054,45936231,42.3585499,-71.08724959999999,3.1951327,-2.0331469,4.507629,-5.0257313e-05,0.00017889676,0.0,0.030759228,-0.0855721,-0.021718344,-0.04362069,-0.00027487415,-0.058527347,0.14861168,-0.0021759917,0.0068509676,-0.016902288,2.7219582,0.053713392,5.8792515,0.10826492,0.72117317,0.48535535,0.2376346,0.13406074,inf,inf,inf,inf,1,1,1,1,2,0,2,1,4,0,1,1,1,0
696793387,696792706,45936231,42.3585499,-71.08724959999999,3.309332,-2.1187503,4.4996505,-5.0257313e-05,0.00017889676,0.0,0.035989698,-0.08741735,-0.018078374,-0.02832,-0.00027487415,-0.058527347,0.14861168,-0.023218837,-0.009652706,-0.001251129,2.7218688,0.053713392,5.8792515,0.11472607,0.6840672,0.4750398,0.21458527,0.12975529,inf,inf,inf,inf,1,1,1,1,2,0,2,1,4,0,1,1,1,0
697291037,697290404,45936231,42.3585499,-71.08724959999999,3.3925867,-2.1807892,4.502629,-5.0257313e-05,0.00017889676,0.0,0.02736248,-0.08208007,-0.018905086,-0.017167429,-0.00027487415,-0.058527347,0.14861168,-0.035106454,0.0062275534,-0.023401523,2.7217028,0.053713392,5.8792515,0.104086876,0.6932092,0.47596925,0.21654782,0.12995097,inf,inf,inf,inf,1,1,1,1,2,0,2,1,4,0,1,1,1,0
697788702,697788102,45936231,42.3585499,-71.08724959999999,3.4905953,-2.2596037,4.495466,-5.0257313e-05,0.00017889676,0.0,0.028362451,-0.08474946,-0.020339288,-0.017410185,-0.00027487415,-0.058527347,0.14861168,-0.011219488,-0.010868556,-0.0041747745,2.7215753,0.053713392,5.8792515,0.10379553,0.6788384,0.47511828,0.21173434,0.12927398,inf,inf,inf,inf,1,1,1,1,2,0,2,1,4,0,1,1,1,0
698286380,698285799,45936231,42.3585499,-71.08724959999999,3.588111,-2.3373504,4.4759893,-5.0257313e-05,0.00017889676,0.0,0.03169406,-0.08373053,-0.0288523,-0.033629194,-0.00027487415,-0.058527347,0.14861168,-0.014617744,-0.0005892325,-0.01234691,2.721651,0.053713392,5.8792515,0.10049677,0.6992027,0.47936708,0.22217904,0.13113809,inf,inf,inf,inf,1,1,1,1,2,0,2,1,4,0,1,1,1,0
698784114,698783497,45936231,42.3585499,-71.08724959999999,3.6995485,-2.412136,4.449222,-5.0257313e-05,0.00017889676,0.0,0.04255912,-0.08413,-0.032269813,-0.044380296,-0.00027487415,-0.058527347,0.14861168,-0.027255533,0.0455458,-0.008677758,2.7215703,0.053713392,5.8792515,0.10429621,0.6783589,0.47230405,0.2125577,0.1289393,inf,inf,inf,inf,1,1,1,1,2,0,2,1,4,0,1,1,1,0
