timestamp,timestamp_sample,ref_timestamp,ref_lat,ref_lon,x,y,z,delta_xy[0],delta_xy[1],delta_z,vx,vy,vz,z_deriv,delta_vxy[0],delta_vxy[1],delta_vz,ax,ay,az,heading,delta_heading,ref_alt,dist_bottom,eph,epv,evh,evv,vxy_max,vz_max,hagl_min,hagl_max,xy_valid,z_valid,v_xy_valid,v_z_valid,xy_reset_counter,z_reset_counter,vxy_reset_counter,vz_reset_counter,heading_reset_counter,heading_good_for_control,xy_global,z_global,dist_bottom_valid,dist_bottom_sensor_bitfield
539798320,539798127,45930887,42.3585499,-71.08724959999999,3.5089526,-2.9769733,5.389644,135.74428,-67.36629,0.004210472,0.050406292,0.012319334,0.02224647,0.014918748,27.919779,-14.272897,-0.8739293,0.04950256,0.060145535,-0.07915712,2.9686444,-0.0044271164,5.8788695,0.10115671,0.6262194,0.46230477,0.20679684,0.12809835,inf,inf,inf,inf,1,1,1,1,8,21,8,28,4,0,1,1,1,0
540298307,540298069,45930887,42.3585499,-71.08724959999999,3.5403814,-2.99996,5.3965306,135.74428,-67.36629,0.004210472,0.05033989,0.007164717,0.017807717,0.012078528,27.919779,-14.272897,-0.8739293,0.055271722,-0.053472374,0.013250342,2.967934,-0.0044271164,5.8788695,0.1,0.6272218,0.45777893,0.20162383,0.12649326,inf,inf,inf,inf,1,1,1,1,8,21,8,28,4,0,1,1,1,0
540798253,540798012,45930887,42.3585499,-71.08724959999999,3.5753448,-3.0442295,5.3888297,135.74428,-67.36629,0.004210472,0.052928474,-0.00824935,0.012853123,2.1549633e-05,27.919779,-14.272897,-0.8739293,0.0052666995,-0.046277896,0.059945147,2.9672108,-0.0044271164,5.8788695,0.1,0.59344846,0.44882485,0.18050034,0.121424235,inf,inf,inf,inf,1,1,1,1,8,21,8,28,4,0,1,1,1,0
541298146,541297954,45930887,42.3585499,-71.08724959999999,3.5831885,-3.1184373,5.37324,135.74428,-67.36629,0.004210472,0.039127383,-0.03012608,0.008712012,-0.017064074,27.919779,-14.272897,-0.8739293,0.016342511,-0.038718853,-0.12380434,2.9663393,-0.0044271164,5.8788695,0.1,0.59695387,0.44901386,0.18223415,0.12152596,inf,inf,inf,inf,1,1,1,1,8,21,8,28,4,0,1,1,1,0
541798218,541797897,45930887,42.3585499,-71.08724959999999,3.5958395,-3.180374,5.351115,135.74428,-67.36629,0.004210472,0.03010956,-0.04023166,0.011345515,-0.023851093,27.919779,-14.272897,-0.8739293,-0.0023168128,0.0035671766,0.120769545,2.966029,-0.0044271164,5.8788695,0.1,0.5834315,0.44416335,0.17988539,0.12043485,inf,inf,inf,inf,1,1,1,1,8,21,8,28,4,0,1,1,1,0
542298283,542297839,45930887,42.3585499,-71.08724959999999,3.6148767,-3.2307322,5.334044,135.74428,-67.36629,0.004210472,0.030048775,-0.04600595,0.0052252742,-0.033714075,27.919779,-14.272897,-0.8739293,0.03619692,0.01892673,-0.0863166,2.9659617,-0.0044271164,5.8788695,0.1,0.57611513,0.4457607,0.18203786,0.12119883,inf,inf,inf,inf,1,1,1,1,8,21,8,28,4,0,1,1,1,0
542797991,542797782,45930887,42.3585499,-71.08724959999999,3.632488,-3.3161228,5.3003044,135.74428,-67.36629,0.004210472,0.022021376,-0.06919226,-0.00015135366,-0.04815384,27.919779,-14.272897,-0.8739293,0.012919773,-0.075730205,-0.08554452,2.965939,-0.0044271164,5.8788695,0.1,0.5844244,0.44815052,0.18639167,0.122259505,inf,inf,inf,inf,1,1,1,1,8,21,8,28,4,0,1,1,1,0
543297944,543297725,45930887,42.3585499,-71.08724959999999,3.6455028,-3.3606417,5.2709846,135.74428,-67.36629,0.004210472,0.017078843,-0.07511681,-0.02221915,-0.06698659,27.919779,-14.272897,-0.8739293,0.045565154,-0.009671874,-0.0708737,2.9658656,-0.0044271164,5.8788695,0.10571337,0.59377235,0.45080227,0.19137242,0.12344086,inf,inf,inf,inf,1,1,1,1,8,21,8,28,4,0,1,1,1,0
543797856,543797667,45930887,42.3585499,-71.08724959999999,3.6491969,-3.3752327,5.2499022,135.74428,-67.36629,0.004210472,0.007963292,-0.06695774,-0.022920558,-0.05623307,27.919779,-14.272897,-0.8739293,-0.027920343,-0.02297,0.02175661,2.966034,-0.0044271164,5.8788695,0.10904789,0.5792826,0.4491845,0.18524969,0.12227042,inf,inf,inf,inf,1,1,1,1,8,21,8,28,4,0,1,1,1,0
544297860,544297610,45930887,42.3585499,-71.08724959999999,3.6814933,-3.381736,5.2343864,135.74428,-67.36629,0.004210472,0.010744159,-0.05447975,-0.011127537,-0.037067503,27.919779,-14.272897,-0.8739293,-0.023088701,0.044888124,0.018689457,2.966122,-0.0044271164,5.8788695,0.1,0.5903816,0.44880578,0.19146788,0.123278886,inf,inf,inf,inf,1,1,1,1,8,21,8,28,4,0,1,1,1,0
544797768,544797553,45930887,42.3585499,-71.08724959999999,3.70364,-3.3733437,5.2280703,135.74428,-67.36629,0.004210472,0.018888114,-0.037766088,-0.010479969,-0.027789993,27.919779,-14.272897,-0.8739293,0.051242705,0.004418403,-0.019637259,2.9662845,-0.0044271164,5.8788695,0.10586786,0.57931054,0.44866836,0.18830757,0.12288589,inf,inf,inf,inf,1,1,1,1,8,21,8,28,4,0,1,1,1,0
545297686,545297496,45930887,42.3585499,-71.08724959999999,3.7385924,-3.3814259,5.2186704,135.74428,-67.36629,0.004210472,0.030021835,-0.03389421,-0.006473805,-0.023790717,27.919779,-14.272897,-0.8739293,0.03260667,-0.066067494,-0.069087505,2.9664574,-0.0044271164,5.8788695,0.1,0.59677327,0.45416245,0.1983872,0.12535653,inf,inf,inf,inf,1,1,1,1,8,21,8,28,4,0,1,1,1,0
545797626,545797438,45930887,42.3585499,-71.08724959999999,3.724528,-3.401962,5.2162185,135.74428,-67.36629,0.004210472,0.017286688,-0.036962233,-0.0057999915,-0.016294498,27.919779,-14.272897,-0.8739293,0.003927105,0.15578431,0.19968593,2.9666772,-0.0044271164,5.8788695,0.10152578,0.5904427,0.45570838,0.19750293,0.12562014,inf,inf,inf,inf,1,1,1,1,8,21,8,28,4,0,1,1,1,0
546297588,546297381,45930887,42.3585499,-71.08724959999999,3.7321556,-3.4146369,5.1977267,135.74428,-67.36629,0.004210472,0.0185211,-0.031874526,-0.011238572,-0.03008389,27.919779,-14.272897,-0.8739293,-0.005029614,-0.02603347,-0.024754,2.9665961,-0.0044271164,5.8788695,0.1,0.604111,0.45533913,0.20214212,0.12624264,inf,inf,inf,inf,1,1,1,1,8,21,8,28,4,0,1,1,1,0
546797673,546797327,45930887,42.3585499,-71.08724959999999,3.7429414,-3.3985376,5.1917,135.74428,-67.36629,0.004210472,0.018898435,-0.019719608,-0.010112921,-0.023580588,27.919779,-14.272897,-0.8739293,0.023802483,0.008074941,0.16149119,2.9663553,-0.0044271164,5.8788695,0.106954575,0.59937495,0.4574465,0.2012618,0.12660582,inf,inf,inf,inf,1,1,1,1,8,21,8,28,4,0,1,1,1,0
547297468,547297267,45930887,42.3585499,-71.08724959999999,3.7844748,-3.360349,5.197986,135.74428,-67.36629,0.004210472,0.028735612,0.004538519,0.00528015,0.0040166085,27.919779,-14.272897,-0.8739293,0.0113584595,0.035155207,0.024895772,2.9664795,-0.0044271164,5.8788695,0.10736418,0.6167982,0.46193343,0.20800711,0.12815574,inf,inf,inf,inf,1,1,1,1,8,21,8,28,4,0,1,1,1,0
547797441,547797210,45930887,42.3585499,-71.08724959999999,3.811824,-3.3243713,5.2013984,135.74428,-67.36629,0.004210472,0.032590102,0.02419387,0.00499293,0.005435521,27.919779,-14.272897,-0.8739293,-0.0053682695,0.029503461,0.12553523,2.9666958,-0.0044271164,5.8788695,0.10243416,0.60852915,0.45884722,0.20403443,0.12723716,inf,inf,inf,inf,1,1,1,1,8,21,8,28,4,0,1,1,1,0
548297393,548297153,45930887,42.3585499,-71.08724959999999,3.8411202,-3.3121972,5.211352,135.74428,-67.36629,0.004210472,0.03479822,0.029496836,0.010450798,0.016077414,27.919779,-14.272897,-0.8739293,-0.03260027,0.020246191,-0.031508904,2.9666927,-0.0044271164,5.8788695,0.10175896,0.620192,0.46117342,0.2060419,0.1276808,inf,inf,inf,inf,1,1,1,1,8,21,8,28,4,0,1,1,1,0
548797279,548797096,45930887,42.3585499,-71.08724959999999,3.9169297,-3.2645688,5.2308426,135.74428,-67.36629,0.004210472,0.05778185,0.046423197,0.01580407,0.026484115,27.919779,-14.272897,-0.8739293,-0.002231958,-0.08855476,-0.004340683,2.966922,-0.0044271164,5.8788695,0.1,0.61474967,0.46275663,0.20446776,0.12775591,inf,inf,inf,inf,1,1,1,1,8,21,8,28,4,0,1,1,1,0
549297226,549297039,45930887,42.3585499,-71.08724959999999,3.936737,-3.2369757,5.244626,135.74428,-67.36629,0.004210472,0.053527754,0.056359448,0.017405309,0.025698492,27.919779,-14.272897,-0.8739293,0.0010822322,0.009700707,-0.011985651,2.9671168,-0.0044271164,5.8788695,0.1,0.63319314,0.46702254,0.21129411,0.12916052,inf,inf,inf,inf,1,1,1,1,8,21,8,28,4,0,1,1,1,0
549797213,549796983,45930887,42.3585499,-71.08724959999999,3.9470427,-3.2354147,5.2564425,135.74428,-67.36629,0.004210472,0.04334267,0.05542452,0.02399021,0.028163716,27.919779,-14.272897,-0.8739293,0.0076105525,0.014939622,0.011981833,2.9668312,-0.0044271164,5.8788695,0.1,0.6131178,0.45985037,0.1989732,0.12628812,inf,inf,inf,inf,1,1,1,1,8,21,8,28,4,0,1,1,1,0
550297111,550296926,45930887,42.3585499,-71.08724959999999,4.0049334,-3.2544234,5.2522445,135.74428,-67.36629,0.004210472,0.057898313,0.04276213,0.018766752,0.008872975,27.919779,-14.272897,-0.8739293,0.014921517,0.01982723,0.009707375,2.9664145,-0.0044271164,5.8788695,0.1,0.62199104,0.46112472,0.20054832,0.12645552,inf,inf,inf,inf,1,1,1,1,8,21,8,28,4,0,1,1,1,0
550797058,550796870,45930887,42.3585499,-71.08724959999999,4.0157576,-3.244197,5.24715,135.74428,-67.36629,0.004210472,0.04498585,0.045651708,0.030903628,0.01075965,27.919779,-14.272897,-0.8739293,-0.0049092155,-0.014670096,-0.00036250576,2.9660416,-0.0044271164,5.8788695,0.1,0.60208726,0.45750555,0.1900633,0.12419814,inf,inf,inf,inf,1,1,1,1,8,21,8,28,4,0,1,1,1,0
551297144,551296812,45930887,42.3585499,-71.08724959999999,4.0251718,-3.2480016,5.2273808,135.74428,-67.36629,0.004210472,0.044116482,0.04109768,0.020238487,-0.017487373,27.919779,-14.272897,-0.8739293,0.0013139481,-0.035607066,0.050617293,2.9654984,-0.0044271164,5.8788695,0.1,0.6088841,0.4583265,0.19240245,0.12446585,inf,inf,inf,inf,1,1,1,1,8,21,8,28,4,0,1,1,1,0
551796984,551796756,45930887,42.3585499,-71.08724959999999,4.0477576,-3.2611005,5.205503,135.74428,-67.36629,0.004210472,0.044839397,0.034158196,0.015862757,-0.029791951,27.919779,-14.272897,-0.8739293,-0.017562686,0.018390067,0.039504252,2.9652689,-0.0044271164,5.8788695,0.1,0.59216815,0.4517981,0.18575014,0.12242082,inf,inf,inf,inf,1,1,1,1,8,21,8,28,4,0,1,1,1,0
552296888,552296699,45930887,42.3585499,-71.08724959999999,4.0960917,-3.2731543,5.1910334,135.74428,-67.36629,0.004210472,0.051225364,0.03369799,0.012308197,-0.03313245,27.919779,-14.272897,-0.8739293,-0.022287704,0.0070581227,0.014964051,2.9654682,-0.0044271164,5.8788695,0.1,0.6028047,0.45430526,0.19191505,0.123691685,inf,inf,inf,inf,1,1,1,1,8,21,8,28,4,0,1,1,1,0
552796829,552796642,45930887,42.3585499,-71.08724959999999,4.1076527,-3.2845187,5.1765704,135.74428,-67.36629,0.004210472,0.041764665,0.034027338,0.015373479,-0.028429711,27.919779,-14.272897,-0.8739293,0.0209218,-0.005022427,-0.017803127,2.9654546,-0.0044271164,5.8788695,0.100596905,0.5829668,0.45018467,0.18216677,0.12145128,inf,inf,inf,inf,1,1,1,1,8,21,8,28,4,0,1,1,1,0
553301855,553296586,45930887,42.3585499,-71.08724959999999,4.1255994,-3.3063848,5.1820426,135.74428,-67.36629,0.004210472,0.0372429,0.030930381,0.025024,-0.005566586,27.919779,-14.272897,-0.8739293,0.009347964,0.01900087,-0.070399314,2.9652984,-0.0044271164,5.8788695,0.10164833,0.58733386,0.45038632,0.18399575,0.121685356,inf,inf,inf,inf,1,1,1,1,8,21,8,28,4,0,1,1,1,0
553796750,553796529,45930887,42.3585499,-71.08724959999999,4.1635466,-3.3598485,5.1985636,135.74428,-67.36629,0.004210472,0.044492267,0.011809786,0.029534224,0.0139997825,27.919779,-14.272897,-0.8739293,0.0031305368,0.028349759,-0.04468105,2.9651742,-0.0044271164,5.8788695,0.1,0.56855845,0.44265285,0.17660415,0.1192488,inf,inf,inf,inf,1,1,1,1,8,21,8,28,4,0,1,1,1,0
554296682,554296473,45930887,42.3585499,-71.08724959999999,4.1606407,-3.3910785,5.19274,135.74428,-67.36629,0.004210472,0.030657666,0.0070831417,0.024837704,0.00033653103,27.919779,-14.272897,-0.8739293,0.00022201307,0.018082919,0.0780734,2.965037,-0.0044271164,5.8788695,0.1,0.57549226,0.4443197,0.18151379,0.120374665,inf,inf,inf,inf,1,1,1,1,8,21,8,28,4,0,1,1,1,0
554796665,554796417,45930887,42.3585499,-71.08724959999999,4.1451893,-3.4010792,5.1796784,135.74428,-67.36629,0.004210472,0.009440135,0.0087611675,0.03298154,-0.0023178295,27.919779,-14.272897,-0.8739293,-0.015538754,-0.0012802214,-0.04958965,2.9648612,-0.0044271164,5.8788695,0.1,0.5641184,0.44371298,0.17969604,0.12015956,inf,inf,inf,inf,1,1,1,1,8,21,8,28,4,0,1,1,1,0
555296565,555296361,45930887,42.3585499,-71.08724959999999,4.089623,-3.3352458,5.1631866,135.74428,-67.36629,0.004210472,-0.010692198,0.040446516,0.023843663,-0.019896518,27.919779,-14.272897,-0.8739293,0.007592702,0.006458917,-0.021379478,2.964803,-0.0044271164,5.8788695,0.1,0.5735456,0.44659433,0.1858879,0.12173832,inf,inf,inf,inf,1,1,1,1,8,21,8,28,4,0,1,1,1,0
555796640,555796304,45930887,42.3585499,-71.08724959999999,4.0565047,-3.3295248,5.1440477,135.74428,-67.36629,0.004210472,-0.027359907,0.037721235,0.026052542,-0.024509983,27.919779,-14.272897,-0.8739293,-0.015393203,0.012965896,0.025839798,2.9647486,-0.0044271164,5.8788695,0.1,0.5519619,0.43773335,0.17349944,0.118299894,inf,inf,inf,inf,1,1,1,1,8,21,8,28,4,0,1,1,1,0
556296432,556296248,45930887,42.3585499,-71.08724959999999,4.0385046,-3.3100955,5.1220727,135.74428,-67.36629,0.004210472,-0.033511072,0.04442872,0.018925883,-0.034889426,27.919779,-14.272897,-0.8739293,0.0062161377,0.0061644525,0.09038824,2.9647522,-0.0044271164,5.8788695,0.1,0.5637743,0.4420512,0.18283716,0.12075269,inf,inf,inf,inf,1,1,1,1,8,21,8,28,4,0,1,1,1,0
556796382,556796192,45930887,42.3585499,-71.08724959999999,4.0621014,-3.308806,5.111108,135.74428,-67.36629,0.004210472,-0.016536545,0.041464563,0.012738154,-0.03282765,27.919779,-14.272897,-0.8739293,0.026451353,-0.004176208,0.0150901275,2.9648118,-0.0044271164,5.8788695,0.10360575,0.55078,0.44076985,0.17838717,0.11992832,inf,inf,inf,inf,1,1,1,1,8,21,8,28,4,0,1,1,1,0
557296323,557296136,45930887,42.3585499,-71.08724959999999,4.0902658,-3.3056812,5.0924373,135.74428,-67.36629,0.004210472,-0.0040007103,0.039558582,0.0035107485,-0.042528134,27.919779,-14.272897,-0.8739293,-0.043510646,0.0018179134,0.025827095,2.965002,-0.0044271164,5.8788695,0.1019187,0.5683099,0.4471573,0.19074956,0.123185046,inf,inf,inf,inf,1,1,1,1,8,21,8,28,4,0,1,1,1,0
557796268,557796079,45930887,42.3585499,-71.08724959999999,4.1063905,-3.310991,5.0689826,135.74428,-67.36629,0.004210472,-0.004833749,0.03590778,0.0043267803,-0.041972265,27.919779,-14.272897,-0.8739293,-0.040031604,0.027056646,-0.041317474,2.9650335,-0.0044271164,5.8788695,0.100997925,0.5632004,0.44564846,0.19102292,0.12334044,inf,inf,inf,inf,1,1,1,1,8,21,8,28,4,0,1,1,1,0
558296209,558296024,45930887,42.3585499,-71.08724959999999,4.127684,-3.3044865,5.062273,135.74428,-67.36629,0.004210472,-0.0040509054,0.035891715,0.0028935578,-0.030390374,27.919779,-14.272897,-0.8739293,0.034746405,-0.010712129,-0.03183055,2.9651928,-0.0044271164,5.8788695,0.11096573,0.57781273,0.450034,0.19724467,0.1250407,inf,inf,inf,inf,1,1,1,1,8,21,8,28,4,0,1,1,1,0
558796155,558795968,45930887,42.3585499,-71.08724959999999,4.1612024,-3.285472,5.0702577,135.74428,-67.36629,0.004210472,0.0048204185,0.040643185,0.007625877,-0.011118252,27.919779,-14.272897,-0.8739293,-0.007952241,0.014910561,-0.046952646,2.9654007,-0.0044271164,5.8788695,0.10319805,0.5660833,0.44975796,0.19120009,0.12418438,inf,inf,inf,inf,1,1,1,1,8,21,8,28,4,0,1,1,1,0
559296126,559295912,45930887,42.3585499,-71.08724959999999,4.1738234,-3.3279371,5.06047,135.74428,-67.36629,0.004210472,0.0071808305,0.017112134,0.0034459503,-0.018871414,27.919779,-14.272897,-0.8739293,-0.0427716,-0.03813294,0.013961551,2.9653559,-0.0044271164,5.8788695,0.1,0.5773971,0.44912323,0.19484389,0.12461545,inf,inf,inf,inf,1,1,1,1,8,21,8,28,4,0,1,1,1,0
559796124,559795856,45930887,42.3585499,-71.08724959999999,4.1809154,-3.334037,5.058627,135.74428,-67.36629,0.004210472,0.0076351566,0.014465589,0.00063951104,-0.014159644,27.919779,-14.272897,-0.8739293,0.025408132,0.035033204,-0.20076366,2.9653306,-0.0044271164,5.8788695,0.11026001,0.5658662,0.4487791,0.18947123,0.12376568,inf,inf,inf,inf,1,1,1,1,8,21,8,28,4,0,1,1,1,0
560296091,560295800,45930887,42.3585499,-71.08724959999999,4.1909103,-3.317487,5.071829,135.74428,-67.36629,0.004210472,0.008977345,0.020210695,0.0085021155,0.007399546,27.919779,-14.272897,-0.8739293,0.004377358,-0.0040061767,0.068236075,2.9653754,-0.0044271164,5.8788695,0.10110283,0.57911175,0.45240533,0.19503522,0.12506114,inf,inf,inf,inf,1,1,1,1,8,21,8,28,4,0,1,1,1,0
560795929,560795744,45930887,42.3585499,-71.08724959999999,4.21206,-3.3189175,5.0742464,135.74428,-67.36629,0.004210472,0.022187775,0.012852247,-0.00039721688,-0.0042975233,27.919779,-14.272897,-0.8739293,0.00014830015,0.0013340833,0.020070307,2.9652555,-0.0044271164,5.8788695,0.100765705,0.57028663,0.45296386,0.19169395,0.12467554,inf,inf,inf,inf,1,1,1,1,8,21,8,28,4,0,1,1,1,0
561295951,561295688,45930887,42.3585499,-71.08724959999999,4.231516,-3.3132055,5.0770106,135.74428,-67.36629,0.004210472,0.030589284,0.006846054,0.007181814,0.0038976606,27.919779,-14.272897,-0.8739293,0.009819444,-0.0012664652,0.076217875,2.9651332,-0.0044271164,5.8788695,0.1,0.58483636,0.45301846,0.1975335,0.12549129,inf,inf,inf,inf,1,1,1,1,8,21,8,28,4,0,1,1,1,0
561795821,561795632,45930887,42.3585499,-71.08724959999999,4.2088327,-3.3140779,5.084895,135.74428,-67.36629,0.004210472,0.020448904,0.00039199056,0.006665024,0.007126751,27.919779,-14.272897,-0.8739293,-0.017629683,-0.023762602,0.025354305,2.965273,-0.0044271164,5.8788695,0.11187315,0.5742363,0.45286217,0.19245741,0.124691136,inf,inf,inf,inf,1,1,1,1,8,21,8,28,4,0,1,1,1,0
562295765,562295577,45930887,42.3585499,-71.08724959999999,4.188741,-3.2841284,5.106518,135.74428,-67.36629,0.004210472,0.014320424,0.008940649,0.028933428,0.03551573,27.919779,-14.272897,-0.8739293,-0.019397177,0.011992732,0.09241328,2.9652562,-0.0044271164,5.8788695,0.1,0.5796853,0.45317256,0.19126318,0.124287985,inf,inf,inf,inf,1,1,1,1,8,21,8,28,4,0,1,1,1,0
562795741,562795521,45930887,42.3585499,-71.08724959999999,4.186315,-3.2421846,5.108121,135.74428,-67.36629,0.004210472,0.0131032765,0.009776129,0.02511407,0.020190705,27.919779,-14.272897,-0.8739293,-0.04197151,0.025889706,0.06881952,2.9653096,-0.0044271164,5.8788695,0.1,0.57247674,0.45394754,0.18958932,0.124168515,inf,inf,inf,inf,1,1,1,1,8,21,8,28,4,0,1,1,1,0
563295657,563295465,45930887,42.3585499,-71.08724959999999,4.1646447,-3.2205472,5.1003075,135.74428,-67.36629,0.004210472,0.0039701518,0.0019612308,0.015329072,-0.0017234103,27.919779,-14.272897,-0.8739293,0.010888101,-0.028298656,-0.017174464,2.9652302,-0.0044271164,5.8788695,0.1,0.5867907,0.45760724,0.19592237,0.1255701,inf,inf,inf,inf,1,1,1,1,8,21,8,28,4,0,1,1,1,0
563795595,563795410,45930887,42.3585499,-71.08724959999999,4.142806,-3.1906252,5.1002526,135.74428,-67.36629,0.004210472,0.0029911508,0.008091479,0.017117482,0.001063687,27.919779,-14.272897,-0.8739293,-0.011297011,0.0062962444,-0.04864189,2.9650483,-0.0044271164,5.8788695,0.100765705,0.5773649,0.4539388,0.19274305,0.12462027,inf,inf,inf,inf,1,1,1,1,8,21,8,28,4,0,1,1,1,0
564295586,564295354,45930887,42.3585499,-71.08724959999999,4.104401,-3.161882,5.112813,135.74428,-67.36629,0.004210472,-0.0047133123,0.0062324735,0.012945941,0.008573908,27.919779,-14.272897,-0.8739293,0.0083183,0.008921864,0.05500053,2.9649112,-0.0044271164,5.8788695,0.10357523,0.5861849,0.45546165,0.19444826,0.12493024,inf,inf,inf,inf,1,1,1,1,8,21,8,28,4,0,1,1,1,0
564795589,564795298,45930887,42.3585499,-71.08724959999999,4.080288,-3.166357,5.1150665,135.74428,-67.36629,0.004210472,0.0025280989,-0.008649396,0.015835261,0.008524748,27.919779,-14.272897,-0.8739293,-0.02089888,0.0038557935,-0.0683399,2.9649289,-0.0044271164,5.8788695,0.1,0.581776,0.45739058,0.19513467,0.12544292,inf,inf,inf,inf,1,1,1,1,8,21,8,28,4,0,1,1,1,0
565305448,565305242,45930887,42.3585499,-71.08724959999999,4.0198236,-3.149157,5.1207914,135.74428,-67.36629,0.004210472,-0.015048147,-0.010153151,0.03510159,0.022609644,27.919779,-14.272897,-0.8739293,0.0062100464,-0.07336724,-0.05589965,2.9646237,-0.0044271164,5.8788695,0.1,0.60193247,0.45925692,0.20422064,0.12703234,inf,inf,inf,inf,1,1,1,1,8,21,8,28,4,0,1,1,1,0
565795441,565795187,45930887,42.3585499,-71.08724959999999,3.9436095,-3.132129,5.1233106,135.74428,-67.36629,0.004210472,-0.02586817,-0.010351977,0.02939556,0.013255508,27.919779,-14.272897,-0.8739293,0.015133884,-0.10073246,0.047456257,2.9641407,-0.0044271164,5.8788695,0.1,0.5865529,0.45680672,0.19525,0.12537976,inf,inf,inf,inf,1,1,1,1,8,21,8,28,4,0,1,1,1,0
566295369,566295132,45930887,42.3585499,-71.08724959999999,3.8676937,-3.1089568,5.132265,135.74428,-67.36629,0.004210472,-0.034981012,-0.013269563,0.026859382,0.013544866,27.919779,-14.272897,-0.8739293,0.033449188,-0.011666105,0.0096661085,2.9637575,-0.0044271164,5.8788695,0.1,0.59715265,0.45862737,0.19752638,0.12580402,inf,inf,inf,inf,1,1,1,1,8,21,8,28,4,0,1,1,1,0
566795279,566795076,45930887,42.3585499,-71.08724959999999,3.789052,-3.0455015,5.1316442,135.74428,-67.36629,0.004210472,-0.05356799,0.009748783,0.026077304,0.007995198,27.919779,-14.272897,-0.8739293,-0.05655263,-0.005831418,0.099353544,2.9639165,-0.0044271164,5.8788695,0.1,0.5930237,0.4602821,0.19758275,0.12616332,inf,inf,inf,inf,1,1,1,1,8,21,8,28,4,0,1,1,1,0
567295282,567295021,45930887,42.3585499,-71.08724959999999,3.7550073,-2.9519653,5.142149,135.74428,-67.36629,0.004210472,-0.051853884,0.03466221,0.0324609,0.016173277,27.919779,-14.272897,-0.8739293,-0.011304146,-0.17409828,0.03528141,2.9637702,-0.0044271164,5.8788695,0.1,0.6097296,0.45998758,0.20385733,0.12695344,inf,inf,inf,inf,1,1,1,1,8,21,8,28,4,0,1,1,1,0
567795203,567794965,45930887,42.3585499,-71.08724959999999,3.7534835,-2.8315697,5.1605396,135.74428,-67.36629,0.004210472,-0.022332706,0.06963092,0.025887653,0.020094072,27.919779,-14.272897,-0.8739293,0.0018560031,0.02704035,0.07242056,2.963767,-0.0044271164,5.8788695,0.101980686,0.60679567,0.46195838,0.20400769,0.12738183,inf,inf,inf,inf,1,1,1,1,8,21,8,28,4,0,1,1,1,0
568305095,568304909,45930887,42.3585499,-71.08724959999999,3.7329142,-2.6933675,5.1794734,135.74428,-67.36629,0.004210472,-0.022113953,0.10441488,0.045459356,0.041511748,27.919779,-14.272897,-0.8739293,-0.0038070648,0.11421624,-0.018823922,2.963828,-0.0044271164,5.8788695,0.1,0.6008618,0.46331075,0.20037267,0.12712383,inf,inf,inf,inf,1,1,1,1,8,21,8,28,4,0,1,1,1,0
568805140,568804854,45930887,42.3585499,-71.08724959999999,3.6459885,-2.6514237,5.191737,135.74428,-67.36629,0.004210472,-0.05044068,0.09077137,0.046052672,0.035887755,27.919779,-14.272897,-0.8739293,-0.04869151,-0.00059807417,0.13625696,2.963713,-0.0044271164,5.8788695,0.1,0.623061,0.4643522,0.20969827,0.12850006,inf,inf,inf,inf,1,1,1,1,8,21,8,28,4,0,1,1,1,0
569295211,569294799,45930887,42.3585499,-71.08724959999999,3.5570853,-2.650997,5.206833,135.74428,-67.36629,0.004210472,-0.06895992,0.07006422,0.05659461,0.041869882,27.919779,-14.272897,-0.8739293,0.0039368663,-0.23201048,-0.24288827,2.963536,-0.0044271164,5.8788695,0.1,0.63984966,0.4669487,0.2143605,0.12937932,inf,inf,inf,inf,1,1,1,1,8,21,8,28,4,0,1,1,1,0
569794926,569794744,45930887,42.3585499,-71.08724959999999,3.54542,-2.6508594,5.2259035,135.74428,-67.36629,0.004210472,-0.0572643,0.04587859,0.063542865,0.046975043,27.919779,-14.272897,-0.8739293,-0.040980313,0.04229128,0.12053907,2.963126,-0.0044271164,5.8788695,0.1,0.63039154,0.4670052,0.20877959,0.12868443,inf,inf,inf,inf,1,1,1,1,8,21,8,28,4,0,1,1,1,0
570294876,570294689,45930887,42.3585499,-71.08724959999999,3.5093522,-2.5961733,5.238561,135.74428,-67.36629,0.004210472,-0.06113621,0.051907256,0.062763944,0.037348542,27.919779,-14.272897,-0.8739293,-0.060656413,0.013288288,-0.0059861136,2.96271,-0.0044271164,5.8788695,0.1,0.65166724,0.471396,0.21660955,0.13022467,inf,inf,inf,inf,1,1,1,1,8,21,8,28,4,0,1,1,1,0
570794817,570794633,45930887,42.3585499,-71.08724959999999,3.47041,-2.5687194,5.2248597,135.74428,-67.36629,0.004210472,-0.053949725,0.04049763,0.047566313,-0.0012241728,27.919779,-14.272897,-0.8739293,0.019290287,-0.044566307,0.05000579,2.9624932,-0.0044271164,5.8788695,0.1,0.6553776,0.47528666,0.22030199,0.13141218,inf,inf,inf,inf,1,1,1,1,8,21,8,28,4,0,1,1,1,0
571294794,571294578,45930887,42.3585499,-71.08724959999999,3.4894905,-2.5116918,5.2140427,135.74428,-67.36629,0.004210472,-0.031076463,0.05108365,0.045626275,-0.008236753,27.919779,-14.272897,-0.8739293,-0.0268618,-0.018310806,-0.0060603945,2.9621227,-0.0044271164,5.8788695,0.1,0.68019485,0.4756837,0.22865713,0.13226579,inf,inf,inf,inf,1,1,1,1,8,21,8,28,4,0,1,1,1,0
571804711,571804521,45930887,42.3585499,-71.08724959999999,3.5365458,-2.500312,5.214995,135.74428,-67.36629,0.004210472,0.00020470459,0.034830004,0.052895516,0.0026882587,27.919779,-14.272897,-0.8739293,0.012506595,-0.011334287,-0.019960307,2.961963,-0.0044271164,5.8788695,0.1,0.68188137,0.4796669,0.22923417,0.1330321,inf,inf,inf,inf,1,1,1,1,8,21,8,28,4,0,1,1,1,0
572304690,572304466,45930887,42.3585499,-71.08724959999999,3.5312243,-2.482833,5.2131906,135.74428,-67.36629,0.004210472,0.00325229,0.028986651,0.04672111,-0.0037187026,27.919779,-14.272897,-0.8739293,0.039149832,-0.0071203364,0.16081032,2.9619334,-0.0044271164,5.8788695,0.1,0.701829,0.48306143,0.23355618,0.13378556,inf,inf,inf,inf,1,1,1,1,8,21,8,28,4,0,1,1,1,0
572794595,572794412,45930887,42.3585499,-71.08724959999999,3.51425,-2.46176,5.207356,135.74428,-67.36629,0.004210472,0.006530761,0.020768538,0.044520378,-0.0074459505,27.919779,-14.272897,-0.8739293,0.0093345875,-0.053931613,-0.08948055,2.9617212,-0.0044271164,5.8788695,0.1,0.68566376,0.48146096,0.22408855,0.13245314,inf,inf,inf,inf,1,1,1,1,8,21,8,28,4,0,1,1,1,0
573294564,573294356,45930887,42.3585499,-71.08724959999999,3.4535658,-2.4386654,5.1950855,135.74428,-67.36629,0.004210472,-0.0099123325,0.018942375,0.036249407,-0.019797644,27.919779,-14.272897,-0.8739293,-0.009557966,0.077470966,-0.038248707,2.961578,-0.0044271164,5.8788695,0.1,0.70974976,0.48118818,0.2323385,0.13309133,inf,inf,inf,inf,1,1,1,1,8,21,8,28,4,0,1,1,1,0
573794648,573794301,45930887,42.3585499,-71.08724959999999,3.3898313,-2.430764,5.191799,135.74428,-67.36629,0.004210472,-0.022605052,0.005488142,0.039134856,-0.013349273,27.919779,-14.272897,-0.8739293,-0.027286343,-0.076691315,0.103976354,2.9616058,-0.0044271164,5.8788695,0.1,0.6836807,0.4776023,0.21776645,0.13077094,inf,inf,inf,inf,1,1,1,1,8,21,8,28,4,0,1,1,1,0
574294506,574294246,45930887,42.3585499,-71.08724959999999,3.3753316,-2.414156,5.169634,135.74428,-67.36629,0.004210472,-0.018985778,-0.010460841,0.022531128,-0.039476104,27.919779,-14.272897,-0.8739293,0.0239738,-0.011622214,-0.41346386,2.9588985,-0.0044271164,5.8788695,0.1,0.69794834,0.47976685,0.22185971,0.13132825,inf,inf,inf,inf,1,1,1,1,8,21,8,28,4,0,1,1,1,0
574804424,574804189,45930887,42.3585499,-71.08724959999999,3.3269744,-2.4022589,5.1207147,135.74428,-67.36629,0.004210472,-0.036691576,-0.055293612,0.016609617,-0.06664175,27.919779,-14.272897,-0.8739293,-0.003655122,-0.062357888,0.11677365,2.9588368,-0.0044271164,5.8788695,0.1,0.6820686,0.47475544,0.21497819,0.12967542,inf,inf,inf,inf,1,1,1,1,8,21,8,28,4,0,1,1,1,0
575304506,575304134,45930887,42.3585499,-71.08724959999999,3.3089032,-2.382881,5.080625,135.74428,-67.36629,0.004210472,-0.040154275,-0.08775871,0.0040263627,-0.08050211,27.919779,-14.272897,-0.8739293,0.32315853,-0.15796469,-0.08133753,2.9596083,-0.0044271164,5.8788695,0.11101866,0.6607917,0.47162,0.20451556,0.12776068,inf,inf,inf,inf,1,1,1,1,8,21,8,28,4,0,1,1,1,0
575804263,575804078,45930887,42.3585499,-71.08724959999999,3.2768364,-2.3183882,5.0707703,135.74428,-67.36629,0.004210472,-0.04221428,-0.0988727,0.010377187,-0.05002354,27.919779,-14.272897,-0.8739293,-0.067074746,-0.06405499,0.06504801,2.9601839,-0.0044271164,5.8788695,0.11031532,0.66980755,0.47260332,0.20743032,0.12808695,inf,inf,inf,inf,1,1,1,1,8,21,8,28,4,0,1,1,1,0
576294212,576294024,45930887,42.3585499,-71.08724959999999,3.2525337,-2.2520173,5.065615,135.74428,-67.36629,0.004210472,-0.043535322,-0.10594732,0.006050956,-0.03644265,27.919779,-14.272897,-0.8739293,-0.059491795,-0.03877155,0.096774966,2.9612033,-0.0044271164,5.8788695,0.12139511,0.6829254,0.47428012,0.21386257,0.12905334,inf,inf,inf,inf,1,1,1,1,8,21,8,28,4,0,1,1,1,0
576794185,576793969,45930887,42.3585499,-71.08724959999999,3.198117,-2.2234256,5.0720744,135.74428,-67.36629,0.004210472,-0.060491856,-0.12678824,-0.0033910854,-0.024724247,27.919779,-14.272897,-0.8739293,-0.12875828,-0.17669691,0.41114548,2.9627395,-0.0044271164,5.8788695,0.1,0.67361134,0.47059107,0.213028,0.12853573,inf,inf,inf,inf,1,1,1,1,8,21,8,28,4,0,1,1,1,0
577294101,577293913,45930887,42.3585499,-71.08724959999999,3.125779,-2.2258646,5.0349464,135.74428,-67.36629,0.004210472,-0.08165241,-0.15427966,-0.01824502,-0.05763276,27.919779,-14.272897,-0.8739293,0.032989074,-0.09562488,0.22482958,2.963437,-0.0044271164,5.8788695,0.1,0.69019186,0.4736474,0.22010441,0.12981056,inf,inf,inf,inf,1,1,1,1,8,21,8,28,4,0,1,1,1,0
577804114,577803857,45930887,42.3585499,-71.08724959999999,3.1011825,-2.209352,5.0054255,135.74428,-67.36629,0.004210472,-0.075087816,-0.15393993,-0.029451422,-0.065074794,27.919779,-14.272897,-0.8739293,-0.0053914906,-0.040110253,0.12152687,2.9641323,-0.0044271164,5.8788695,0.10349369,0.68648833,0.4763866,0.22143114,0.13055019,inf,inf,inf,inf,1,1,1,1,8,21,8,28,4,0,1,1,1,0
578304101,578303801,45930887,42.3585499,-71.08724959999999,3.1130798,-2.1138685,4.9645844,135.74428,-67.36629,0.004210472,-0.053989887,-0.11625825,-0.044135164,-0.08447204,27.919779,-14.272897,-0.8739293,-0.041093502,-0.037209034,0.00019269157,2.965235,-0.0044271164,5.8788695,0.10209608,0.70338297,0.47489232,0.22722831,0.13093492,inf,inf,inf,inf,1,1,1,1,8,21,8,28,4,0,1,1,1,0
578803949,578803746,45930887,42.3585499,-71.08724959999999,3.1129901,-2.0703025,4.9050555,135.74428,-67.36629,0.004210472,-0.045405317,-0.10831929,-0.05296671,-0.10538478,27.919779,-14.272897,-0.8739293,-0.0077150012,-0.040053632,0.016992532,2.96629,-0.0044271164,5.8788695,0.1,0.69249254,0.47513953,0.22271317,0.13060342,inf,inf,inf,inf,1,1,1,1,8,21,8,28,4,0,1,1,1,0
579293877,579293691,45930887,42.3585499,-71.08724959999999,3.077748,-2.0315902,4.868217,135.74428,-67.36629,0.004210472,-0.055910602,-0.09333305,-0.05577828,-0.092634246,27.919779,-14.272897,-0.8739293,-0.0019142542,-0.01384786,-0.011915065,2.9672174,-0.0044271164,5.8788695,0.117918015,0.70308965,0.47579017,0.22432634,0.13077223,inf,inf,inf,inf,1,1,1,1,8,21,8,28,4,0,1,1,1,0
579793819,579793636,45930887,42.3585499,-71.08724959999999,3.027946,-2.0009718,4.8384624,135.74428,-67.36629,0.004210472,-0.06140437,-0.08110423,-0.066604376,-0.08995117,27.919779,-14.272897,-0.8739293,0.035846274,-0.07762859,-0.00293085,2.968235,-0.0044271164,5.8788695,0.11846113,0.6992901,0.47776252,0.22481602,0.13128789,inf,inf,inf,inf,1,1,1,1,8,21,8,28,4,0,1,1,1,0
580293767,580293580,45930887,42.3585499,-71.08724959999999,2.966207,-2.0113716,4.8267436,135.74428,-67.36629,0.004210472,-0.07731683,-0.08834869,-0.038564555,-0.043280467,27.919779,-14.272897,-0.8739293,-0.02272729,-0.030354733,-0.011112865,2.970736,-0.0044271164,5.8788695,0.11992264,0.7227014,0.48198077,0.23365548,0.13283408,inf,inf,inf,inf,1,1,1,1,8,21,8,28,4,0,1,1,1,0
580793791,580793525,45930887,42.3585499,-71.08724959999999,2.9283898,-1.9782788,4.8404346,135.74428,-67.36629,0.004210472,-0.08025462,-0.078048885,-0.022784835,-0.0017098614,27.919779,-14.272897,-0.8739293,-0.024735738,-0.023694597,0.033383418,2.9715834,-0.0044271164,5.8788695,0.12327337,0.7107854,0.47727978,0.22691989,0.13145855,inf,inf,inf,inf,1,1,1,1,8,21,8,28,4,0,1,1,1,0
581303663,581303473,45930887,42.3585499,-71.08724959999999,2.9646153,-1.9146285,4.862728,135.74428,-67.36629,0.004210472,-0.04661436,-0.054397203,-0.024078598,0.013255056,27.919779,-14.272897,-0.8739293,0.049145307,-0.02161316,-0.050327424,2.9733672,-0.0044271164,5.8788695,0.12456179,0.71063876,0.480451,0.22803615,0.13215491,inf,inf,inf,inf,1,1,1,1,8,21,8,28,4,0,1,1,1,0
581803597,581803412,45930887,42.3585499,-71.08724959999999,2.8627367,-1.7802355,4.8928256,135.74428,-67.36629,0.004210472,-0.084241174,-0.0042287633,-0.009398809,0.043414924,27.919779,-14.272897,-0.8739293,-0.18374296,0.09636854,-0.0663359,2.9743574,-0.0044271164,5.8788695,0.118029594,0.7272632,0.4829169,0.23133957,0.13272429,inf,inf,inf,inf,1,1,1,1,8,21,8,28,4,0,1,1,1,0
582303564,582303357,45930887,42.3585499,-71.08724959999999,2.8220015,-1.6585912,4.9326925,135.74428,-67.36629,0.004210472,-0.08938905,0.020907417,-0.0071649817,0.05503294,27.919779,-14.272897,-0.8739293,0.014056377,0.01818022,0.04034855,2.9741623,-0.0044271164,5.8788695,0.10647249,0.7369965,0.48369262,0.23059973,0.13255307,inf,inf,inf,inf,1,1,1,1,8,21,8,28,4,0,1,1,1,0
582803559,582803301,45930887,42.3585499,-71.08724959999999,2.7725852,-1.6511805,4.963628,135.74428,-67.36629,0.004210472,-0.092756264,0.014685454,-0.0020036967,0.055292185,27.919779,-14.272897,-0.8739293,0.012940517,0.0071033426,0.07613009,2.9758728,-0.0044271164,5.8788695,0.1,0.7226758,0.4782473,0.22426693,0.13102204,inf,inf,inf,inf,1,1,1,1,8,21,8,28,4,0,1,1,1,0
583293431,583293246,45930887,42.3585499,-71.08724959999999,2.7334256,-1.6803843,4.9630284,135.74428,-67.36629,0.004210472,-0.08992996,0.003204167,-0.015818853,0.01864876,27.919779,-14.272897,-0.8739293,-0.018775212,0.0054259566,-0.11032836,2.9764402,-0.0044271164,5.8788695,0.1,0.7406131,0.48055893,0.23082094,0.13196911,inf,inf,inf,inf,1,1,1,1,8,21,8,28,4,0,1,1,1,0
583793381,583793190,45930887,42.3585499,-71.08724959999999,2.6940227,-1.700928,4.93879,135.74428,-67.36629,0.004210472,-0.08711,0.0023178905,-0.012070945,-0.004329523,27.919779,-14.272897,-0.8739293,0.0069003515,0.023173291,0.05129925,2.976923,-0.0044271164,5.8788695,0.1,0.7214917,0.47875875,0.2213801,0.13065611,inf,inf,inf,inf,1,1,1,1,8,21,8,28,4,0,1,1,1,0
584303432,584303133,45930887,42.3585499,-71.08724959999999,2.6174161,-1.7203164,4.9176664,135.74428,-67.36629,0.004210472,-0.09819464,0.0020938306,-0.015123027,-0.021392034,27.919779,-14.272897,-0.8739293,0.042075984,0.012402452,0.0049196463,2.9778125,-0.0044271164,5.8788695,0.1,0.7401873,0.4781434,0.22849639,0.13123263,inf,inf,inf,inf,1,1,1,1,8,21,8,28,4,0,1,1,1,0
584803262,584803077,45930887,42.3585499,-71.08724959999999,2.5801094,-1.754384,4.8979135,135.74428,-67.36629,0.004210472,-0.08287579,-0.0001542849,-0.011512684,-0.02487078,27.919779,-14.272897,-0.8739293,0.04245698,0.008438702,-0.0540933,2.9787166,-0.0044271164,5.8788695,0.1,0.7154455,0.4747765,0.21620335,0.12927532,inf,inf,inf,inf,1,1,1,1,8,21,8,28,4,0,1,1,1,0
585303401,585303021,45930887,42.3585499,-71.08724959999999,2.5110736,-1.7999923,4.888445,135.74428,-67.36629,0.004210472,-0.084825836,-0.001844611,-0.009301852,-0.01993016,27.919779,-14.272897,-0.8739293,0.030562362,0.03817558,0.03041369,2.9802444,-0.0044271164,5.8788695,0.1,0.70655155,0.47555265,0.21533228,0.12938431,inf,inf,inf,inf,1,1,1,1,8,21,8,28,4,0,1,1,1,0
585803228,585802965,45930887,42.3585499,-71.08724959999999,2.3999157,-1.8189827,4.889118,135.74428,-67.36629,0.004210472,-0.108253576,0.008650131,-0.00086812256,-0.003786438,27.919779,-14.272897,-0.8739293,0.00466918,0.044231903,-0.016576743,2.9816816,-0.0044271164,5.8788695,0.106349945,0.7266728,0.47977483,0.22531189,0.13115542,inf,inf,inf,inf,1,1,1,1,8,21,8,28,4,0,1,1,1,0
586303123,586302909,45930887,42.3585499,-71.08724959999999,2.3114038,-1.8164636,4.898431,135.74428,-67.36629,0.004210472,-0.114547096,0.024991084,-0.0059205,0.0014011223,27.919779,-14.272897,-0.8739293,0.0034337547,0.049101476,0.039063267,2.983127,-0.0044271164,5.8788695,0.11139822,0.7462316,0.47897634,0.23381065,0.13187584,inf,inf,inf,inf,1,1,1,1,8,21,8,28,4,0,1,1,1,0
586793085,586792855,45930887,42.3585499,-71.08724959999999,2.2812736,-1.7851826,4.920377,135.74428,-67.36629,0.004210472,-0.09835641,0.051785503,-0.009566208,0.015842326,27.919779,-14.272897,-0.8739293,-0.014200894,0.0399222,-0.04735747,2.9845457,-0.0044271164,5.8788695,0.10963917,0.72609407,0.4768191,0.22481045,0.13064978,inf,inf,inf,inf,1,1,1,1,8,21,8,28,4,0,1,1,1,0
587303227,587302797,45930887,42.3585499,-71.08724959999999,2.2945592,-1.7248147,4.9400506,135.74428,-67.36629,0.004210472,-0.070207186,0.07761196,-0.0184365,0.015711952,27.919779,-14.272897,-0.8739293,-0.044551764,0.033813994,-0.013488466,2.9862485,-0.0044271164,5.8788695,0.109051704,0.71774435,0.47866374,0.22306027,0.1308296,inf,inf,inf,inf,1,1,1,1,8,21,8,28,4,0,1,1,1,0
587802944,587802741,45930887,42.3585499,-71.08724959999999,2.3348,-1.6987947,4.96261,135.74428,-67.36629,0.004210472,-0.044795588,0.083322965,-0.0145322,0.03146487,27.919779,-14.272897,-0.8739293,0.016190596,0.036822915,0.024197368,2.9877603,-0.0044271164,5.8788695,0.11755133,0.7129706,0.47567144,0.21394192,0.1289976,inf,inf,inf,inf,1,1,1,1,8,21,8,28,4,0,1,1,1,0
588303055,588302684,45930887,42.3585499,-71.08724959999999,2.329482,-1.7131077,5.008046,135.74428,-67.36629,0.004210472,-0.03835039,0.06883719,-0.012227704,0.052239563,27.919779,-14.272897,-0.8739293,0.035554174,0.008249709,-0.10872138,2.9894595,-0.0044271164,5.8788695,0.109099865,0.6974616,0.46986747,0.20853549,0.12747057,inf,inf,inf,inf,1,1,1,1,8,21,8,28,4,0,1,1,1,0
588802814,588802628,45930887,42.3585499,-71.08724959999999,2.3304443,-1.6894933,5.0270123,135.74428,-67.36629,0.004210472,-0.024745366,0.06486703,-0.0029835473,0.051871385,27.919779,-14.272897,-0.8739293,0.004175808,0.02055406,-0.03333342,2.9908319,-0.0044271164,5.8788695,0.1,0.70759106,0.4712805,0.2124059,0.12806568,inf,inf,inf,inf,1,1,1,1,8,21,8,28,4,0,1,1,1,0
589302891,589302571,45930887,42.3585499,-71.08724959999999,2.3255508,-1.6605523,5.0498576,135.74428,-67.36629,0.004210472,-0.013703674,0.0631371,0.017181162,0.06411758,27.919779,-14.272897,-0.8739293,-0.034584995,0.01912225,0.06317523,2.992873,-0.0044271164,5.8788695,0.1,0.6931572,0.46994853,0.2072429,0.12726721,inf,inf,inf,inf,1,1,1,1,8,21,8,28,4,0,1,1,1,0
589802705,589802515,45930887,42.3585499,-71.08724959999999,2.3339782,-1.6312772,5.065168,135.74428,-67.36629,0.004210472,0.009165527,0.065927975,0.034187037,0.06222055,27.919779,-14.272897,-0.8739293,0.041083675,0.04200589,-0.04880032,2.994,-0.0044271164,5.8788695,0.1,0.7069038,0.4725623,0.21366489,0.12844184,inf,inf,inf,inf,1,1,1,1,8,21,8,28,4,0,1,1,1,0
590302839,590302458,45930887,42.3585499,-71.08724959999999,2.3131497,-1.5761409,5.0832725,135.74428,-67.36629,0.004210472,0.01810201,0.0778746,0.045032892,0.061443668,27.919779,-14.272897,-0.8739293,0.023657085,0.041365325,0.07704022,2.995596,-0.0044271164,5.8788695,0.1,0.7017814,0.4699742,0.21484831,0.12840393,inf,inf,inf,inf,1,1,1,1,8,21,8,28,4,0,1,1,1,0
590802676,590802401,45930887,42.3585499,-71.08724959999999,2.3303528,-1.484774,5.106198,135.74428,-67.36629,0.004210472,0.038777173,0.10365273,0.058135394,0.06539176,27.919779,-14.272897,-0.8739293,0.02575327,0.00089077605,0.038835663,2.996561,-0.0044271164,5.8788695,0.1,0.7281241,0.47581536,0.22873427,0.13095464,inf,inf,inf,inf,1,1,1,1,8,21,8,28,4,0,1,1,1,0
591302554,591302345,45930887,42.3585499,-71.08724959999999,2.3349326,-1.4278165,5.1214633,135.74428,-67.36629,0.004210472,0.04689712,0.1082392,0.05261395,0.048940856,27.919779,-14.272897,-0.8739293,-0.01032381,0.021858288,-0.00839536,2.9969547,-0.0044271164,5.8788695,0.1,0.75253284,0.480605,0.23897114,0.13274454,inf,inf,inf,inf,1,1,1,1,8,21,8,28,4,0,1,1,1,0
591802535,591802288,45930887,42.3585499,-71.08724959999999,2.326538,-1.3641453,5.1216063,135.74428,-67.36629,0.004210472,0.053000495,0.11316782,0.04075458,0.020328853,27.919779,-14.272897,-0.8739293,0.01491018,0.0034590173,0.11836806,2.9968452,-0.0044271164,5.8788695,0.1,0.7354354,0.47987598,0.22980145,0.13177685,inf,inf,inf,inf,1,1,1,1,8,21,8,28,4,0,1,1,1,0
592302484,592302231,45930887,42.3585499,-71.08724959999999,2.2820919,-1.3392234,5.1025205,135.74428,-67.36629,0.004210472,0.037286595,0.079320066,0.021835119,-0.016433217,27.919779,-14.272897,-0.8739293,-0.076101035,-0.24097168,-0.020104703,2.993412,-0.0044271164,5.8788695,0.1,0.761527,0.48053473,0.24110776,0.13299048,inf,inf,inf,inf,1,1,1,1,8,21,8,28,4,0,1,1,1,0
592802364,592802174,45930887,42.3585499,-71.08724959999999,2.211566,-1.3745345,5.0835657,135.74428,-67.36629,0.004210472,0.008395177,-0.03223334,0.016958635,-0.027401343,27.919779,-14.272897,-0.8739293,-0.07254672,0.08129831,-0.23002876,2.9978292,-0.0044271164,5.8788695,0.1,0.74762654,0.48063254,0.23449893,0.13239215,inf,inf,inf,inf,1,1,1,1,8,21,8,28,4,0,1,1,1,0
593302301,593302117,45930887,42.3585499,-71.08724959999999,2.1333044,-1.4691573,5.064311,135.74428,-67.36629,0.004210472,-0.019342398,-0.14232616,0.0033699505,-0.03808907,27.919779,-14.272897,-0.8739293,0.01984839,-0.22650746,-0.10462701,2.9965603,-0.0044271164,5.8788695,0.1,0.7751187,0.48571125,0.24583225,0.13414183,inf,inf,inf,inf,1,1,1,1,8,21,8,28,4,0,1,1,1,0
593802247,593802060,45930887,42.3585499,-71.08724959999999,2.070354,-1.520871,5.055179,135.74428,-67.36629,0.004210472,-0.031035893,-0.20865369,-0.0010400774,-0.031456295,27.919779,-14.272897,-0.8739293,-0.0022137817,-0.14384465,0.004110048,2.9973934,-0.0044271164,5.8788695,0.10923767,0.764308,0.48646846,0.23998907,0.13372576,inf,inf,inf,inf,1,1,1,1,8,21,8,28,4,0,1,1,1,0
594297396,594292004,45930887,42.3585499,-71.08724959999999,2.0019314,-1.6036568,5.042466,135.74428,-67.36629,0.004210472,-0.047813296,-0.26676816,0.013704277,-0.016912881,27.919779,-14.272897,-0.8739293,-0.010340142,-0.14362977,0.01602532,2.997435,-0.0044271164,5.8788695,0.1,0.7643394,0.4839735,0.24177232,0.13358742,inf,inf,inf,inf,1,1,1,1,8,21,8,28,4,0,1,1,1,0
594802132,594801946,45930887,42.3585499,-71.08724959999999,1.8296987,-1.7602401,5.0216217,135.74428,-67.36629,0.004210472,-0.09886268,-0.33496884,0.008168406,-0.029673997,27.919779,-14.272897,-0.8739293,0.030884808,-0.11777601,-0.042401318,2.99758,-0.0044271164,5.8788695,0.1,0.79455113,0.48963374,0.25230822,0.13522078,inf,inf,inf,inf,1,1,1,1,8,21,8,28,4,0,1,1,1,0
595302222,595301888,45930887,42.3585499,-71.08724959999999,1.7044433,-1.8256018,5.0343957,135.74428,-67.36629,0.004210472,-0.11642672,-0.34959874,0.0068447962,-0.007891446,27.919779,-14.272897,-0.8739293,-0.0059964955,-0.08852009,0.09004228,2.9981494,-0.0044271164,5.8788695,0.11574459,0.77363956,0.4881473,0.23930305,0.13372353,inf,inf,inf,inf,1,1,1,1,8,21,8,28,4,0,1,1,1,0
595802076,595801831,45930887,42.3585499,-71.08724959999999,1.6750802,-1.8819963,5.053006,135.74428,-67.36629,0.004210472,-0.09979673,-0.35337988,0.014547177,0.016425213,27.919779,-14.272897,-0.8739293,0.036397684,-0.08129558,-0.030325256,2.9991853,-0.0044271164,5.8788695,0.10448742,0.7954347,0.48657787,0.24556808,0.1338387,inf,inf,inf,inf,1,1,1,1,8,21,8,28,4,0,1,1,1,0
596302017,596301773,45930887,42.3585499,-71.08724959999999,1.701387,-1.964498,5.0555,135.74428,-67.36629,0.004210472,-0.07062457,-0.36103046,0.007955004,0.005700692,27.919779,-14.272897,-0.8739293,0.025311917,-0.08760539,0.07828653,3.0000181,-0.0044271164,5.8788695,0.1,0.81379306,0.48891,0.24937552,0.1343126,inf,inf,inf,inf,1,1,1,1,8,21,8,28,4,0,1,1,1,0
596801921,596801716,45930887,42.3585499,-71.08724959999999,1.7208525,-1.9711344,5.0572133,135.74428,-67.36629,0.004210472,-0.04677391,-0.33054814,0.0066765947,0.0018906523,27.919779,-14.272897,-0.8739293,0.022601582,-0.055725686,-0.025029738,3.0008943,-0.0044271164,5.8788695,0.1,0.7977758,0.48836327,0.24176314,0.1334987,inf,inf,inf,inf,1,1,1,1,8,21,8,28,4,0,1,1,1,0
597301847,597301658,45930887,42.3585499,-71.08724959999999,1.7115269,-1.98337,5.0624976,135.74428,-67.36629,0.004210472,-0.033107094,-0.29915905,0.010755594,0.006700471,27.919779,-14.272897,-0.8739293,0.016122976,-0.042265873,-0.04558674,3.0020864,-0.0044271164,5.8788695,0.1,0.8137485,0.49021658,0.24522002,0.1339012,inf,inf,inf,inf,1,1,1,1,8,21,8,28,4,0,1,1,1,0
597801824,597801600,45930887,42.3585499,-71.08724959999999,1.7083329,-1.9670558,5.0515614,135.74428,-67.36629,0.004210472,-0.017396409,-0.25610843,0.0025183086,-0.010878991,27.919779,-14.272897,-0.8739293,0.026273806,-0.023101928,-0.20926018,3.003346,-0.0044271164,5.8788695,0.1,0.79402554,0.48395833,0.23595054,0.13203442,inf,inf,inf,inf,1,1,1,1,8,21,8,28,4,0,1,1,1,0
598301879,598301543,45930887,42.3585499,-71.08724959999999,1.6741725,-1.9715519,5.035533,135.74428,-67.36629,0.004210472,-0.010797586,-0.22573069,-0.0054234425,-0.025986085,27.919779,-14.272897,-0.8739293,0.02758861,-0.10303478,0.21562928,3.004367,-0.0044271164,5.8788695,0.1,0.78920275,0.4854469,0.23638707,0.13237323,inf,inf,inf,inf,1,1,1,1,8,21,8,28,4,0,1,1,1,0
598801732,598801484,45930887,42.3585499,-71.08724959999999,1.6898495,-1.9744787,5.008218,135.74428,-67.36629,0.004210472,0.01304552,-0.19220065,-0.0022118965,-0.03311353,27.919779,-14.272897,-0.8739293,0.015966121,0.002577074,0.042203315,3.0054603,-0.0044271164,5.8788695,0.102445126,0.80514526,0.48740453,0.24034236,0.13290215,inf,inf,inf,inf,1,1,1,1,8,21,8,28,4,0,1,1,1,0
599301619,599301426,45930887,42.3585499,-71.08724959999999,1.66534,-1.9404559,5.0059447,135.74428,-67.36629,0.004210472,0.020150347,-0.14625224,0.0012961837,-0.01835314,27.919779,-14.272897,-0.8739293,0.045054518,0.016441576,0.001743583,3.006651,-0.0044271164,5.8788695,0.103521824,0.8208188,0.48919043,0.2442561,0.13341032,inf,inf,inf,inf,1,1,1,1,8,21,8,28,4,0,1,1,1,0
599801621,599801368,45930887,42.3585499,-71.08724959999999,1.6236886,-1.9044135,4.989205,135.74428,-67.36629,0.004210472,0.021844503,-0.10406395,-0.011649319,-0.035198677,27.919779,-14.272897,-0.8739293,0.03479489,0.022749413,-0.010580318,3.0077157,-0.0044271164,5.8788695,0.1,0.81167424,0.48514187,0.24167593,0.13262886,inf,inf,inf,inf,1,1,1,1,8,21,8,28,4,0,1,1,1,0
600301600,600301310,45930887,42.3585499,-71.08724959999999,1.592482,-1.842856,4.96818,135.74428,-67.36629,0.004210472,0.024584487,-0.056573,-0.012405323,-0.037830282,27.919779,-14.272897,-0.8739293,-0.0044320817,0.03898637,0.026915742,3.0082877,-0.0044271164,5.8788695,0.1,0.82892436,0.48736307,0.24667682,0.13333124,inf,inf,inf,inf,1,1,1,1,8,21,8,28,4,0,1,1,1,0
600801490,600801252,45930887,42.3585499,-71.08724959999999,1.5367521,-1.801007,4.9396586,135.74428,-67.36629,0.004210472,0.023884919,-0.027774906,-0.025746573,-0.05333269,27.919779,-14.272897,-0.8739293,0.029982032,0.022543285,-0.009054495,3.00888,-0.0044271164,5.8788695,0.10856676,0.8184061,0.48810783,0.2441182,0.13331266,inf,inf,inf,inf,1,1,1,1,8,21,8,28,4,0,1,1,1,0
601301626,601301193,45930887,42.3585499,-71.08724959999999,1.413768,-1.6937377,4.909225,135.74428,-67.36629,0.004210472,-0.007747396,0.023093319,-0.038629975,-0.06783295,27.919779,-14.272897,-0.8739293,0.028727965,0.01574178,0.020720072,3.009948,-0.0044271164,5.8788695,0.1,0.80687267,0.48879147,0.24097958,0.13324483,inf,inf,inf,inf,1,1,1,1,8,21,8,28,4,0,1,1,1,0
601801351,601801135,45930887,42.3585499,-71.08724959999999,1.1798102,-1.5193985,4.858227,135.74428,-67.36629,0.004210472,-0.08656559,0.066724434,-0.044248164,-0.0840846,27.919779,-14.272897,-0.8739293,0.004355432,0.0045723165,0.045990683,3.0100663,-0.0044271164,5.8788695,0.1043725,0.82981807,0.48769984,0.2501043,0.13384485,inf,inf,inf,inf,1,1,1,1,8,21,8,28,4,0,1,1,1,0
602301404,602301077,45930887,42.3585499,-71.08724959999999,1.0398399,-1.3792465,4.8355527,135.74428,-67.36629,0.004210472,-0.114321075,0.104149416,-0.05316495,-0.07432707,27.919779,-14.272897,-0.8739293,-0.016301803,0.045839395,-0.10135182,3.009096,-0.0044271164,5.8788695,0.11801338,0.82383835,0.48951116,0.24963218,0.13421243,inf,inf,inf,inf,1,1,1,1,8,21,8,28,4,0,1,1,1,0
602801202,602801018,45930887,42.3585499,-71.08724959999999,0.9436781,-1.228617,4.8253536,135.74428,-67.36629,0.004210472,-0.12319098,0.14437668,-0.045836657,-0.04696475,27.919779,-14.272897,-0.8739293,-0.02164013,0.044303346,0.14772592,3.0093691,-0.0044271164,5.8788695,0.119250774,0.8486686,0.49317363,0.2584517,0.13542043,inf,inf,inf,inf,1,1,1,1,8,21,8,28,4,0,1,1,1,0
603301143,603300959,45930887,42.3585499,-71.08724959999999,0.83548784,-1.1229593,4.8271813,135.74428,-67.36629,0.004210472,-0.13558465,0.16196723,-0.042702552,-0.025465965,27.919779,-14.272897,-0.8739293,0.022459079,0.03920467,0.007837589,3.009441,-0.0044271164,5.8788695,0.11203146,0.8722517,0.49633145,0.26533625,0.1363349,inf,inf,inf,inf,1,1,1,1,8,21,8,28,4,0,1,1,1,0
603801088,603800900,45930887,42.3585499,-71.08724959999999,0.75790274,-1.0501236,4.8209944,135.74428,-67.36629,0.004210472,-0.13548951,0.16311441,-0.04331815,-0.02322786,27.919779,-14.272897,-0.8739293,-0.030916989,0.031406578,0.061711766,3.0095253,-0.0044271164,5.8788695,0.114592075,0.85844564,0.49181458,0.258952,0.13517094,inf,inf,inf,inf,1,1,1,1,8,21,8,28,4,0,1,1,1,0
604301167,604300841,45930887,42.3585499,-71.08724959999999,0.6995628,-1.0136583,4.832964,135.74428,-67.36629,0.004210472,-0.12708385,0.13996702,-0.03847858,-0.0014898868,27.919779,-14.272897,-0.8739293,0.14371338,-0.03642845,-0.15229438,3.007806,-0.0044271164,5.8788695,0.11755848,0.84381515,0.49184224,0.25192896,0.13462536,inf,inf,inf,inf,1,1,1,1,8,21,8,28,4,0,1,1,1,0
604800988,604800783,45930887,42.3585499,-71.08724959999999,0.7211239,-0.93874234,4.8632045,135.74428,-67.36629,0.004210472,-0.09873738,0.13101108,-0.021853445,0.036323596,27.919779,-14.272897,-0.8739293,0.004024793,0.068891704,0.029188432,3.004254,-0.0044271164,5.8788695,0.124042034,0.8449116,0.49084106,0.24540824,0.13366221,inf,inf,inf,inf,1,1,1,1,8,21,8,28,4,0,1,1,1,0
605301143,605300723,45930887,42.3585499,-71.08724959999999,0.7248383,-0.87416875,4.8853197,135.74428,-67.36629,0.004210472,-0.07890249,0.11219297,-0.014298359,0.04024227,27.919779,-14.272897,-0.8739293,-0.023857439,-0.03086345,0.053846348,3.0080342,-0.0044271164,5.8788695,0.1,0.8282063,0.4903003,0.23914298,0.1330242,inf,inf,inf,inf,1,1,1,1,8,21,8,28,4,0,1,1,1,0
605800916,605800664,45930887,42.3585499,-71.08724959999999,0.69843435,-0.7763146,4.884141,135.74428,-67.36629,0.004210472,-0.07579097,0.116104536,-0.00513256,0.028456662,27.919779,-14.272897,-0.8739293,0.04088824,-0.033541385,-0.21717338,3.0087085,-0.0044271164,5.8788695,0.10112858,0.82932556,0.48460835,0.23528081,0.13159999,inf,inf,inf,inf,1,1,1,1,8,21,8,28,4,0,1,1,1,0
606300963,606300605,45930887,42.3585499,-71.08724959999999,0.6642867,-0.6757903,4.8967013,135.74428,-67.36629,0.004210472,-0.07793115,0.12578683,0.0024223877,0.033150002,27.919779,-14.272897,-0.8739293,0.03495742,0.017879002,-0.0321804,3.0091186,-0.0044271164,5.8788695,0.11419678,0.8089013,0.48309892,0.2278359,0.13066058,inf,inf,inf,inf,1,1,1,1,8,21,8,28,4,0,1,1,1,0
606800791,606800545,45930887,42.3585499,-71.08724959999999,0.65368235,-0.5873189,4.9216247,135.74428,-67.36629,0.004210472,-0.06197614,0.14525937,0.0055599203,0.039678905,27.919779,-14.272897,-0.8739293,-0.021759918,0.061010297,0.06340108,3.0096762,-0.0044271164,5.8788695,0.1,0.82346076,0.48553878,0.2349374,0.13170916,inf,inf,inf,inf,1,1,1,1,8,21,8,28,4,0,1,1,1,0
607300832,607300486,45930887,42.3585499,-71.08724959999999,0.6148534,-0.52795637,4.930371,135.74428,-67.36629,0.004210472,-0.05311576,0.15651517,0.014385683,0.03756185,27.919779,-14.272897,-0.8739293,-0.027984153,0.04170388,-0.09268149,3.0100336,-0.0044271164,5.8788695,0.1,0.79810745,0.48291442,0.22416931,0.13024572,inf,inf,inf,inf,1,1,1,1,8,21,8,28,4,0,1,1,1,0
607800677,607800426,45930887,42.3585499,-71.08724959999999,0.6168776,-0.55941415,4.9349127,135.74428,-67.36629,0.004210472,-0.032193806,0.13784595,0.016612895,0.027139394,27.919779,-14.272897,-0.8739293,0.07425249,0.027907435,-0.07403928,3.010561,-0.0044271164,5.8788695,0.1,0.80888003,0.4801845,0.22938013,0.13037923,inf,inf,inf,inf,1,1,1,1,8,21,8,28,4,0,1,1,1,0
608300556,608300367,45930887,42.3585499,-71.08724959999999,0.60617477,-0.60620546,4.9310417,135.74428,-67.36629,0.004210472,-0.015134186,0.11913679,0.00792891,0.007068198,27.919779,-14.272897,-0.8739293,0.04358089,0.04008311,0.021493487,3.0107985,-0.0044271164,5.8788695,0.1,0.81181085,0.48009747,0.22944525,0.130303,inf,inf,inf,inf,1,1,1,1,8,21,8,28,4,0,1,1,1,0
608800495,608800307,45930887,42.3585499,-71.08724959999999,0.59399384,-0.57968843,4.9286366,135.74428,-67.36629,0.004210472,0.0013887724,0.13429692,0.0032891755,-0.0021379224,27.919779,-14.272897,-0.8739293,0.055003967,0.029523069,0.0010855609,3.011001,-0.0044271164,5.8788695,0.1,0.7948355,0.47968912,0.22593467,0.13001485,inf,inf,inf,inf,1,1,1,1,8,21,8,28,4,0,1,1,1,0
609300603,609300247,45930887,42.3585499,-71.08724959999999,0.6061577,-0.59630245,4.926547,135.74428,-67.36629,0.004210472,0.013796523,0.13390443,0.018027188,0.009389267,27.919779,-14.272897,-0.8739293,0.0072745034,0.051516175,-0.020830492,3.0116775,-0.0044271164,5.8788695,0.1,0.7652695,0.47528687,0.2124981,0.12783849,inf,inf,inf,inf,1,1,1,1,8,21,8,28,4,0,1,1,1,0
609800411,609800187,45930887,42.3585499,-71.08724959999999,0.6080351,-0.62554556,4.9257154,135.74428,-67.36629,0.004210472,0.020897856,0.1332171,0.009449758,0.0015352241,27.919779,-14.272897,-0.8739293,-0.014831924,0.06550264,0.053595793,3.01295,-0.0044271164,5.8788695,0.102813244,0.781073,0.47493792,0.22369006,0.12920696,inf,inf,inf,inf,1,1,1,1,8,21,8,28,4,0,1,1,1,0
610300521,610300127,45930887,42.3585499,-71.08724959999999,0.5820066,-0.68875223,4.9333997,135.74428,-67.36629,0.004210472,0.018004075,0.11763158,0.018772934,0.012206453,27.919779,-14.272897,-0.8739293,0.060486022,0.037429072,-0.18178156,3.0138736,-0.0044271164,5.8788695,0.1,0.7601241,0.47318807,0.21576357,0.12817207,inf,inf,inf,inf,1,1,1,1,8,21,8,28,4,0,1,1,1,0
610800251,610800067,45930887,42.3585499,-71.08724959999999,0.5746797,-0.76700884,4.9403334,135.74428,-67.36629,0.004210472,0.023599898,0.093234256,0.019300207,0.017462727,27.919779,-14.272897,-0.8739293,-0.012431169,0.06122556,0.087906964,3.0139267,-0.0044271164,5.8788695,0.10483265,0.75853896,0.4718411,0.21191378,0.12740634,inf,inf,inf,inf,1,1,1,1,8,21,8,28,4,0,1,1,1,0
611300361,611300006,45930887,42.3585499,-71.08724959999999,0.5627737,-0.8343851,4.953183,135.74428,-67.36629,0.004210472,0.02658389,0.07295253,0.014888837,0.014928865,27.919779,-14.272897,-0.8739293,0.046341207,0.010649267,-0.10938863,3.014466,-0.0044271164,5.8788695,0.1,0.7452971,0.46789277,0.21094419,0.12689279,inf,inf,inf,inf,1,1,1,1,8,21,8,28,4,0,1,1,1,0
611800260,611799946,45930887,42.3585499,-71.08724959999999,0.55728835,-0.8736998,4.9619293,135.74428,-67.36629,0.004210472,0.027167808,0.05862144,0.019977434,0.021285012,27.919779,-14.272897,-0.8739293,0.06323139,0.007919188,-0.08541561,3.014753,-0.0044271164,5.8788695,0.1,0.75099385,0.46899208,0.213578,0.12738664,inf,inf,inf,inf,1,1,1,1,8,21,8,28,4,0,1,1,1,0
612300099,612299886,45930887,42.3585499,-71.08724959999999,0.5621959,-0.92793626,4.968152,135.74428,-67.36629,0.004210472,0.034293387,0.03358309,0.016963683,0.013402332,27.919779,-14.272897,-0.8739293,0.025749166,-0.00915813,-0.11223815,3.0143633,-0.0044271164,5.8788695,0.1,0.7566847,0.47008592,0.21606623,0.12785766,inf,inf,inf,inf,1,1,1,1,8,21,8,28,4,0,1,1,1,0
612800013,612799825,45930887,42.3585499,-71.08724959999999,0.56965315,-0.98995996,4.9629316,135.74428,-67.36629,0.004210472,0.03627328,0.014997764,0.023336707,0.008527505,27.919779,-14.272897,-0.8739293,0.13317809,-0.16328412,0.36219552,3.009804,-0.0044271164,5.8788695,0.1,0.7391565,0.46898073,0.21142754,0.12723586,inf,inf,inf,inf,1,1,1,1,8,21,8,28,4,0,1,1,1,0
613300223,613299764,45930887,42.3585499,-71.08724959999999,0.6238036,-1.0867625,4.954592,135.74428,-67.36629,0.004210472,0.058119908,-0.02430244,0.01962732,-0.0031414023,27.919779,-14.272897,-0.8739293,-0.06208879,0.07734607,0.11804061,3.0128517,-0.0044271164,5.8788695,0.1,0.73365384,0.46758702,0.21581908,0.12782885,inf,inf,inf,inf,1,1,1,1,8,21,8,28,4,0,1,1,1,0
613799906,613799704,45930887,42.3585499,-71.08724959999999,0.6653697,-1.2016667,4.9403534,135.74428,-67.36629,0.004210472,0.07088982,-0.042549316,0.02278642,-0.010427535,27.919779,-14.272897,-0.8739293,-0.0435143,0.07337449,0.11454848,3.0121174,-0.0044271164,5.8788695,0.1,0.7508176,0.47208682,0.22579972,0.1297525,inf,inf,inf,inf,1,1,1,1,8,21,8,28,4,0,1,1,1,0
614299992,614299643,45930887,42.3585499,-71.08724959999999,0.6485849,-1.2502005,4.934873,135.74428,-67.36629,0.004210472,0.058696296,-0.03571774,0.018209936,-0.012819447,27.919779,-14.272897,-0.8739293,0.00025157322,0.050468575,0.000370695,3.012713,-0.0044271164,5.8788695,0.1,0.74822676,0.4755345,0.22967851,0.13093299,inf,inf,inf,inf,1,1,1,1,8,21,8,28,4,0,1,1,1,0
614799779,614799582,45930887,42.3585499,-71.08724959999999,0.6286889,-1.3202759,4.9196677,135.74428,-67.36629,0.004210472,0.043416835,-0.03783018,0.012650029,-0.022890002,27.919779,-14.272897,-0.8739293,0.029951604,0.007502481,0.0950116,3.0124946,-0.0044271164,5.8788695,0.1,0.76680076,0.4798209,0.23735377,0.13239077,inf,inf,inf,inf,1,1,1,1,8,21,8,28,4,0,1,1,1,0
615299755,615299521,45930887,42.3585499,-71.08724959999999,0.61813986,-1.3797401,4.931893,135.74428,-67.36629,0.004210472,0.03191244,-0.051195256,0.008205805,-0.0056352667,27.919779,-14.272897,-0.8739293,-0.01520169,-0.051702343,-0.04963511,3.0139885,-0.0044271164,5.8788695,0.109238625,0.7727193,0.47638556,0.235358,0.13154411,inf,inf,inf,inf,1,1,1,1,8,21,8,28,4,0,1,1,1,0
615799646,615799459,45930887,42.3585499,-71.08724959999999,0.6317983,-1.4421612,4.9566207,135.74428,-67.36629,0.004210472,0.028886508,-0.069740646,0.012592655,0.018238338,27.919779,-14.272897,-0.8739293,0.05967956,-0.055096734,-0.1389992,3.0142305,-0.0044271164,5.8788695,0.10726166,0.75268424,0.47532883,0.22608921,0.13043761,inf,inf,inf,inf,1,1,1,1,8,21,8,28,4,0,1,1,1,0
616299733,616299398,45930887,42.3585499,-71.08724959999999,0.6760485,-1.4976846,4.965752,135.74428,-67.36629,0.004210472,0.042010713,-0.083014764,0.02263428,0.026934978,27.919779,-14.272897,-0.8739293,0.03991404,-0.05319917,-0.00926659,3.0147479,-0.0044271164,5.8788695,0.11256552,0.7336557,0.47413492,0.21778779,0.1293221,inf,inf,inf,inf,1,1,1,1,8,21,8,28,4,0,1,1,1,0
616799525,616799337,45930887,42.3585499,-71.08724959999999,0.7099482,-1.5575708,4.9838514,135.74428,-67.36629,0.004210472,0.046003327,-0.08930448,0.041548245,0.04130838,27.919779,-14.272897,-0.8739293,0.07203585,-0.038531404,0.0676693,3.0139678,-0.0044271164,5.8788695,0.1,0.7501963,0.47807977,0.225986,0.13080133,inf,inf,inf,inf,1,1,1,1,8,21,8,28,4,0,1,1,1,0
617299642,617299275,45930887,42.3585499,-71.08724959999999,0.7025991,-1.6097187,4.9938507,135.74428,-67.36629,0.004210472,0.031645533,-0.08567339,0.06851103,0.054342277,27.919779,-14.272897,-0.8739293,-0.056402005,0.05483869,0.042151093,3.013349,-0.0044271164,5.8788695,0.1,0.74289495,0.47570735,0.22630635,0.13060062,inf,inf,inf,inf,1,1,1,1,8,21,8,28,4,0,1,1,1,0
617799397,617799214,45930887,42.3585499,-71.08724959999999,0.66479677,-1.6630781,5.006541,135.74428,-67.36629,0.004210472,0.012654541,-0.07984712,0.05800031,0.032637946,27.919779,-14.272897,-0.8739293,-0.058883462,0.03320387,0.07488513,3.0132313,-0.0044271164,5.8788695,0.1,0.76431596,0.4803905,0.23635586,0.1322914,inf,inf,inf,inf,1,1,1,1,8,21,8,28,4,0,1,1,1,0
618299395,618299152,45930887,42.3585499,-71.08724959999999,0.6210828,-1.7164361,5.0148544,135.74428,-67.36629,0.004210472,-0.0016977275,-0.07463781,0.06510822,0.033690568,27.919779,-14.272897,-0.8739293,0.019137831,0.007414079,-0.07523875,3.0128632,-0.0044271164,5.8788695,0.1,0.76841277,0.48060396,0.23320118,0.13181011,inf,inf,inf,inf,1,1,1,1,8,21,8,28,4,0,1,1,1,0
618799273,618799090,45930887,42.3585499,-71.08724959999999,0.6059405,-1.6879492,5.010983,135.74428,-67.36629,0.004210472,-0.001299425,-0.03201404,0.040288717,-0.0042307978,27.919779,-14.272897,-0.8739293,0.044393033,0.024626277,0.048970055,3.0127294,-0.0044271164,5.8788695,0.1,0.7479113,0.47918218,0.22433922,0.13063945,inf,inf,inf,inf,1,1,1,1,8,21,8,28,4,0,1,1,1,0
619299484,619299028,45930887,42.3585499,-71.08724959999999,0.58393896,-1.7296269,4.9835153,135.74428,-67.36629,0.004210472,-0.0055265427,-0.044126954,0.033883475,-0.028347818,27.919779,-14.272897,-0.8739293,-0.03653665,-0.019430816,-0.014106332,3.0100508,-0.0044271164,5.8788695,0.1,0.71992886,0.47076055,0.21085355,0.12769732,inf,inf,inf,inf,1,1,1,1,8,21,8,28,4,0,1,1,1,0
619799203,619798966,45930887,42.3585499,-71.08724959999999,0.57706,-1.7647368,4.9676113,135.74428,-67.36629,0.004210472,-0.0050552944,-0.062098708,0.027744304,-0.029648324,27.919779,-14.272897,-0.8739293,-0.017503936,-0.035850268,0.098450124,3.0101075,-0.0044271164,5.8788695,0.10678673,0.7297513,0.47293216,0.21572423,0.12852554,inf,inf,inf,inf,1,1,1,1,8,21,8,28,4,0,1,1,1,0
620299240,620298905,45930887,42.3585499,-71.08724959999999,0.59169513,-1.76786,4.9801044,135.74428,-67.36629,0.004210472,0.0019188318,-0.048982505,0.045822326,0.007162478,27.919779,-14.272897,-0.8739293,-0.0022888076,0.018679582,0.025411598,3.0106192,-0.0044271164,5.8788695,0.107759,0.71942306,0.47413793,0.21593808,0.12885389,inf,inf,inf,inf,1,1,1,1,8,21,8,28,4,0,1,1,1,0
620799029,620798842,45930887,42.3585499,-71.08724959999999,0.5641591,-1.7491273,5.005179,135.74428,-67.36629,0.004210472,-0.004475915,-0.016667377,0.050322495,0.028083151,27.919779,-14.272897,-0.8739293,-0.019051421,0.055029113,0.057759877,3.0097804,-0.0044271164,5.8788695,0.10171366,0.72768915,0.47558713,0.2186555,0.129302,inf,inf,inf,inf,1,1,1,1,8,21,8,28,4,0,1,1,1,0
621299114,621298780,45930887,42.3585499,-71.08724959999999,0.46555173,-1.6623098,4.9968004,135.74428,-67.36629,0.004210472,-0.036169574,0.03445046,0.036839485,-0.0012163015,27.919779,-14.272897,-0.8739293,-0.036935028,0.046217326,0.1771111,3.0103016,-0.0044271164,5.8788695,0.1,0.71875215,0.47267044,0.21874753,0.12903942,inf,inf,inf,inf,1,1,1,1,8,21,8,28,4,0,1,1,1,0
621798972,621798717,45930887,42.3585499,-71.08724959999999,0.40402627,-1.5883482,4.972711,135.74428,-67.36629,0.004210472,-0.051680207,0.06392597,0.024402484,-0.028870076,27.919779,-14.272897,-0.8739293,0.006109241,0.016074406,-0.07797251,3.0102067,-0.0044271164,5.8788695,0.1,0.73451906,0.4761005,0.22615261,0.13037252,inf,inf,inf,inf,1,1,1,1,8,21,8,28,4,0,1,1,1,0
622298984,622298655,45930887,42.3585499,-71.08724959999999,0.37753558,-1.5395181,4.9544396,135.74428,-67.36629,0.004210472,-0.049027033,0.085660584,0.010325125,-0.040006172,27.919779,-14.272897,-0.8739293,0.011721119,0.039734643,-0.074063174,3.009619,-0.0044271164,5.8788695,0.1,0.72371435,0.47700647,0.22374098,0.13037144,inf,inf,inf,inf,1,1,1,1,8,21,8,28,4,0,1,1,1,0
622798810,622798592,45930887,42.3585499,-71.08724959999999,0.36030108,-1.5070683,4.930688,135.74428,-67.36629,0.004210472,-0.047628738,0.10438622,0.00856636,-0.044290498,27.919779,-14.272897,-0.8739293,-0.0778794,0.09008604,0.07852717,3.0093963,-0.0044271164,5.8788695,0.1,0.74053013,0.47598478,0.23059891,0.13093062,inf,inf,inf,inf,1,1,1,1,8,21,8,28,4,0,1,1,1,0
623298719,623298530,45930887,42.3585499,-71.08724959999999,0.37013763,-1.4886138,4.9154053,135.74428,-67.36629,0.004210472,-0.03863166,0.13279197,0.018086055,-0.028291825,27.919779,-14.272897,-0.8739293,0.011722884,0.08210178,0.025402045,3.0092323,-0.0044271164,5.8788695,0.10444164,0.75649995,0.47887206,0.23579508,0.13184656,inf,inf,inf,inf,1,1,1,1,8,21,8,28,4,0,1,1,1,0
623798666,623798467,45930887,42.3585499,-71.08724959999999,0.35910222,-1.5517528,4.9089146,135.74428,-67.36629,0.004210472,-0.03701817,0.115963794,0.019735653,-0.021545466,27.919779,-14.272897,-0.8739293,-0.019807234,0.06852053,-0.029737948,3.009956,-0.0044271164,5.8788695,0.10085583,0.73950416,0.47810128,0.22761181,0.13094743,inf,inf,inf,inf,1,1,1,1,8,21,8,28,4,0,1,1,1,0
624298630,624298404,45930887,42.3585499,-71.08724959999999,0.33518606,-1.5566578,4.885467,135.74428,-67.36629,0.004210472,-0.04900786,0.116284534,0.021404138,-0.02877805,27.919779,-14.272897,-0.8739293,-0.051523052,0.04461,0.053197745,3.0103092,-0.0044271164,5.8788695,0.10084057,0.74673945,0.47879252,0.22693068,0.13084272,inf,inf,inf,inf,1,1,1,1,8,21,8,28,4,0,1,1,1,0
624798534,624798341,45930887,42.3585499,-71.08724959999999,0.30403256,-1.5543085,4.8671885,135.74428,-67.36629,0.004210472,-0.06330231,0.11268826,0.0028812059,-0.04560264,27.919779,-14.272897,-0.8739293,-0.021539094,0.032844115,-0.07976617,3.0100186,-0.0044271164,5.8788695,0.10007906,0.7375697,0.47986883,0.22569028,0.13097328,inf,inf,inf,inf,1,1,1,1,8,21,8,28,4,0,1,1,1,0
625298493,625298278,45930887,42.3585499,-71.08724959999999,0.28364772,-1.5385438,4.8574095,135.74428,-67.36629,0.004210472,-0.05931001,0.12415308,0.001707282,-0.03465584,27.919779,-14.272897,-0.8739293,-0.088147454,0.076281615,0.19264317,3.0092082,-0.0044271164,5.8788695,0.10863161,0.7463008,0.4765518,0.22689672,0.13046952,inf,inf,inf,inf,1,1,1,1,8,21,8,28,4,0,1,1,1,0
625798399,625798214,45930887,42.3585499,-71.08724959999999,0.26717526,-1.4934961,4.859809,135.74428,-67.36629,0.004210472,-0.05127347,0.14762351,0.00090266904,-0.019330386,27.919779,-14.272897,-0.8739293,-0.014145108,0.11508733,0.12946849,3.0088954,-0.0044271164,5.8788695,0.11176205,0.73831403,0.47800437,0.22663738,0.13078445,inf,inf,inf,inf,1,1,1,1,8,21,8,28,4,0,1,1,1,0
626298389,626298151,45930887,42.3585499,-71.08724959999999,0.26686463,-1.4678473,4.8595314,135.74428,-67.36629,0.004210472,-0.036543995,0.15874888,0.008427164,-0.006699607,27.919779,-14.272897,-0.8739293,-0.022944348,0.053255416,0.08611648,3.008758,-0.0044271164,5.8788695,0.10624933,0.75881547,0.4820575,0.23561558,0.13230303,inf,inf,inf,inf,1,1,1,1,8,21,8,28,4,0,1,1,1,0
626798272,626798087,45930887,42.3585499,-71.08724959999999,0.2500943,-1.4739214,4.86502,135.74428,-67.36629,0.004210472,-0.0349511,0.15193325,0.0030666369,-0.003304886,27.919779,-14.272897,-0.8739293,-0.025367731,0.03990824,-0.02038873,3.0088432,-0.0044271164,5.8788695,0.111480236,0.75177264,0.48387447,0.23492132,0.13264215,inf,inf,inf,inf,1,1,1,1,8,21,8,28,4,0,1,1,1,0
627298418,627298024,45930887,42.3585499,-71.08724959999999,0.27443007,-1.4776489,4.8747754,135.74428,-67.36629,0.004210472,-0.010634524,0.14836533,0.011102958,0.009825428,27.919779,-14.272897,-0.8739293,0.045990396,0.05123991,-0.06687237,3.008714,-0.0044271164,5.8788695,0.102157116,0.748073,0.48182285,0.23585068,0.13256669,inf,inf,inf,inf,1,1,1,1,8,21,8,28,4,0,1,1,1,0
627798146,627797960,45930887,42.3585499,-71.08724959999999,0.30218604,-1.4623693,4.879324,135.74428,-67.36629,0.004210472,0.005765066,0.15624456,0.008079736,0.006722751,27.919779,-14.272897,-0.8739293,0.023316033,0.06582405,0.11456507,3.0085738,-0.0044271164,5.8788695,0.1,0.7738954,0.48657584,0.24619716,0.13420974,inf,inf,inf,inf,1,1,1,1,8,21,8,28,4,0,1,1,1,0
628298089,628297896,45930887,42.3585499,-71.08724959999999,0.32985753,-1.4456164,4.881419,135.74428,-67.36629,0.004210472,0.02454299,0.16577524,0.012219556,0.0075446377,27.919779,-14.272897,-0.8739293,-7.552205e-05,0.06450306,-0.012692946,3.008463,-0.0044271164,5.8788695,0.102870464,0.7968381,0.49034977,0.2533737,0.135296,inf,inf,inf,inf,1,1,1,1,8,21,8,28,4,0,1,1,1,0
628798049,628797832,45930887,42.3585499,-71.08724959999999,0.36655125,-1.4828088,4.8879046,135.74428,-67.36629,0.004210472,0.042011596,0.1522206,0.020391215,0.016227804,27.919779,-14.272897,-0.8739293,0.016193634,0.053694334,-0.0052303686,3.00857,-0.0044271164,5.8788695,0.101896286,0.7825452,0.48598096,0.24625488,0.13401604,inf,inf,inf,inf,1,1,1,1,8,21,8,28,4,0,1,1,1,0
629298091,629297768,45930887,42.3585499,-71.08724959999999,0.40931812,-1.5598868,4.8954196,135.74428,-67.36629,0.004210472,0.05658326,0.12109973,0.02157555,0.01614228,27.919779,-14.272897,-0.8739293,0.02985947,0.03602875,0.038725108,3.0084982,-0.0044271164,5.8788695,0.1,0.76568806,0.48566535,0.23784123,0.13319035,inf,inf,inf,inf,1,1,1,1,8,21,8,28,4,0,1,1,1,0
629797926,629797704,45930887,42.3585499,-71.08724959999999,0.4030898,-1.5868499,4.887906,135.74428,-67.36629,0.004210472,0.05069142,0.112065874,0.011645688,-0.0031913293,27.919779,-14.272897,-0.8739293,0.01774794,0.042724933,0.17033568,3.008352,-0.0044271164,5.8788695,0.1,0.78218335,0.4881329,0.2420797,0.13378356,inf,inf,inf,inf,1,1,1,1,8,21,8,28,4,0,1,1,1,0
630297960,630297640,45930887,42.3585499,-71.08724959999999,0.37519407,-1.6132097,4.8921313,135.74428,-67.36629,0.004210472,0.04168301,0.10175185,0.013396159,0.0026182865,27.919779,-14.272897,-0.8739293,-0.021831864,0.036945645,0.13693729,3.0083687,-0.0044271164,5.8788695,0.1,0.7666646,0.4879709,0.23572184,0.1331661,inf,inf,inf,inf,1,1,1,1,8,21,8,28,4,0,1,1,1,0
630797791,630797575,45930887,42.3585499,-71.08724959999999,0.30704552,-1.612187,4.8912783,135.74428,-67.36629,0.004210472,0.01983359,0.108543985,0.019281127,0.0058191237,27.919779,-14.272897,-0.8739293,-0.0012177789,0.05242105,0.002876337,3.0080667,-0.0044271164,5.8788695,0.1,0.7879498,0.48665926,0.24378166,0.13357025,inf,inf,inf,inf,1,1,1,1,8,21,8,28,4,0,1,1,1,0
631297697,631297511,45930887,42.3585499,-71.08724959999999,0.2217307,-1.5745804,4.873322,135.74428,-67.36629,0.004210472,-0.002993341,0.12944786,0.017589105,-0.012658749,27.919779,-14.272897,-0.8739293,0.052163634,0.050450668,0.17948419,3.0079823,-0.0044271164,5.8788695,0.1,0.7821078,0.48851123,0.24343601,0.13391109,inf,inf,inf,inf,1,1,1,1,8,21,8,28,4,0,1,1,1,0
631797637,631797446,45930887,42.3585499,-71.08724959999999,0.084129356,-1.5016613,4.8693566,135.74428,-67.36629,0.004210472,-0.041124478,0.15894432,0.019264441,-0.00859637,27.919779,-14.272897,-0.8739293,0.0028012379,0.05421396,-0.026279673,3.0080967,-0.0044271164,5.8788695,0.1,0.80839026,0.49260354,0.2532414,0.13528712,inf,inf,inf,inf,1,1,1,1,8,21,8,28,4,0,1,1,1,0
632297727,632297382,45930887,42.3585499,-71.08724959999999,-0.006609949,-1.4926833,4.855902,135.74428,-67.36629,0.004210472,-0.05423342,0.1538049,0.00810421,-0.024766937,27.919779,-14.272897,-0.8739293,-0.004864732,0.03776214,0.033214767,3.0081248,-0.0044271164,5.8788695,0.1,0.79455924,0.4928759,0.24691652,0.13481317,inf,inf,inf,inf,1,1,1,1,8,21,8,28,4,0,1,1,1,0
632797823,632797317,45930887,42.3585499,-71.08724959999999,-0.08749322,-1.5369217,4.828928,135.74428,-67.36629,0.004210472,-0.06370905,0.123725876,-0.0052462663,-0.045027193,27.919779,-14.272897,-0.8739293,0.022545893,0.0092311455,0.03264049,3.0074718,-0.0044271164,5.8788695,0.1,0.81415874,0.49066356,0.25219858,0.13475454,inf,inf,inf,inf,1,1,1,1,8,21,8,28,4,0,1,1,1,0
633297638,633297252,45930887,42.3585499,-71.08724959999999,-0.12246364,-1.5532069,4.7958665,135.74428,-67.36629,0.004210472,-0.0581836,0.11002103,-0.01596315,-0.06004776,27.919779,-14.272897,-0.8739293,0.056049407,-0.00047819145,-0.0882553,3.007318,-0.0044271164,5.8788695,0.102482796,0.792295,0.48914254,0.2409945,0.13351025,inf,inf,inf,inf,1,1,1,1,8,21,8,28,4,0,1,1,1,0
633797378,633797187,45930887,42.3585499,-71.08724959999999,-0.15155017,-1.5809056,4.7919874,135.74428,-67.36629,0.004210472,-0.048938625,0.094632275,-0.0122361,-0.033707123,27.919779,-14.272897,-0.8739293,-0.047106,0.03453523,0.05752849,3.007183,-0.0044271164,5.8788695,0.112210274,0.81403065,0.4922709,0.24866292,0.13456248,inf,inf,inf,inf,1,1,1,1,8,21,8,28,4,0,1,1,1,0
634297508,634297122,45930887,42.3585499,-71.08724959999999,-0.20493558,-1.6373702,4.7873445,135.74428,-67.36629,0.004210472,-0.05008657,0.077613465,-0.0041267853,-0.017547091,27.919779,-14.272897,-0.8739293,-0.00023298763,-0.011834818,0.12981966,3.0065615,-0.0044271164,5.8788695,0.10831976,0.80431837,0.49329162,0.24609911,0.1345829,inf,inf,inf,inf,1,1,1,1,8,21,8,28,4,0,1,1,1,0
634797271,634797057,45930887,42.3585499,-71.08724959999999,-0.25482658,-1.6863908,4.7841277,135.74428,-67.36629,0.004210472,-0.05186799,0.06825812,-0.0030357344,-0.013275823,27.919779,-14.272897,-0.8739293,0.023461854,0.019247884,-0.00083620555,3.0063167,-0.0044271164,5.8788695,0.10163355,0.8277465,0.49171308,0.25450557,0.13492887,inf,inf,inf,inf,1,1,1,1,8,21,8,28,4,0,1,1,1,0
635297315,635296991,45930887,42.3585499,-71.08724959999999,-0.2878263,-1.7087177,4.771671,135.74428,-67.36629,0.004210472,-0.043963023,0.06114959,-0.0073357085,-0.021970322,27.919779,-14.272897,-0.8739293,0.026860567,0.0012850036,-0.09766895,3.0062437,-0.0044271164,5.8788695,0.1,0.8032586,0.4898504,0.2426071,0.1336198,inf,inf,inf,inf,1,1,1,1,8,21,8,28,4,0,1,1,1,0
635797122,635796929,45930887,42.3585499,-71.08724959999999,-0.3729385,-1.735917,4.7510834,135.74428,-67.36629,0.004210472,-0.056891453,0.04974735,-0.024870902,-0.0442119,27.919779,-14.272897,-0.8739293,-0.049811773,0.01569029,0.0907236,3.0061362,-0.0044271164,5.8788695,0.10003042,0.8251296,0.49300715,0.25078806,0.13473307,inf,inf,inf,inf,1,1,1,1,8,21,8,28,4,0,1,1,1,0
636297221,636296860,45930887,42.3585499,-71.08724959999999,-0.45434755,-1.7426053,4.7352753,135.74428,-67.36629,0.004210472,-0.06361913,0.050516777,-0.031470686,-0.042414635,27.919779,-14.272897,-0.8739293,0.022754079,0.019148136,-0.010825984,3.0059936,-0.0044271164,5.8788695,0.10400581,0.81839705,0.49461582,0.25034258,0.1350621,inf,inf,inf,inf,1,1,1,1,8,21,8,28,4,0,1,1,1,0
636797048,636796794,45930887,42.3585499,-71.08724959999999,-0.5513475,-1.7397668,4.711771,135.74428,-67.36629,0.004210472,-0.067624986,0.05253259,-0.032482013,-0.042898115,27.919779,-14.272897,-0.8739293,0.07693381,0.008217504,0.12418787,3.0060058,-0.0044271164,5.8788695,0.10900879,0.84636885,0.4937255,0.26112852,0.13572083,inf,inf,inf,inf,1,1,1,1,8,21,8,28,4,0,1,1,1,0
637297239,637296729,45930887,42.3585499,-71.08724959999999,-0.5758023,-1.7799555,4.699422,135.74428,-67.36629,0.004210472,-0.049449887,0.043438256,-0.020381859,-0.026611561,27.919779,-14.272897,-0.8739293,-0.023902692,0.029499236,0.019286212,3.005857,-0.0044271164,5.8788695,0.1042552,0.84013176,0.49557644,0.2598275,0.1360343,inf,inf,inf,inf,1,1,1,1,8,21,8,28,4,0,1,1,1,0
637796849,637796663,45930887,42.3585499,-71.08724959999999,-0.56646246,-1.7982486,4.688738,135.74428,-67.36629,0.004210472,-0.020683272,0.048759762,-0.02256963,-0.0282172,27.919779,-14.272897,-0.8739293,0.092195414,0.026010666,-0.24410231,3.0058582,-0.0044271164,5.8788695,0.1053257,0.8570178,0.497525,0.2628603,0.13641581,inf,inf,inf,inf,1,1,1,1,8,21,8,28,4,0,1,1,1,0
638296781,638296597,45930887,42.3585499,-71.08724959999999,-0.58985853,-1.8267448,4.699574,135.74428,-67.36629,0.004210472,-0.013618999,0.037840124,-0.015087391,-0.0025094626,27.919779,-14.272897,-0.8739293,-0.061661437,0.039470837,0.3683636,3.0060754,-0.0044271164,5.8788695,0.11606407,0.8809698,0.500537,0.27000263,0.13729389,inf,inf,inf,inf,1,1,1,1,8,21,8,28,4,0,1,1,1,0
638796720,638796531,45930887,42.3585499,-71.08724959999999,-0.6671221,-1.8148235,4.719525,135.74428,-67.36629,0.004210472,-0.021448795,0.043121632,-0.021142667,0.007037821,27.919779,-14.272897,-0.8739293,0.014864788,0.0034577523,0.076660775,3.006114,-0.0044271164,5.8788695,0.1126461,0.86941326,0.49658722,0.26624507,0.13646346,inf,inf,inf,inf,1,1,1,1,8,21,8,28,4,0,1,1,1,0
639296729,639296465,45930887,42.3585499,-71.08724959999999,-0.69680506,-1.8237262,4.7364283,135.74428,-67.36629,0.004210472,-0.012547904,0.035637494,-0.022543889,0.015368608,27.919779,-14.272897,-0.8739293,0.048769936,0.019696493,0.015221985,3.0062318,-0.0044271164,5.8788695,0.10781908,0.8900896,0.4990675,0.27157798,0.13709223,inf,inf,inf,inf,1,1,1,1,8,21,8,28,4,0,1,1,1,0
639796627,639796398,45930887,42.3585499,-71.08724959999999,-0.7050821,-1.8197018,4.7604256,135.74428,-67.36629,0.004210472,0.006863582,0.04046342,-0.0019548072,0.043655403,27.919779,-14.272897,-0.8739293,-0.008736066,-0.01753016,-0.20652778,3.0068073,-0.0044271164,5.8788695,0.107850075,0.8590456,0.49707386,0.2567123,0.13566723,inf,inf,inf,inf,1,1,1,1,8,21,8,28,4,0,1,1,1,0
640296569,640296332,45930887,42.3585499,-71.08724959999999,-0.713231,-1.8660648,4.7748775,135.74428,-67.36629,0.004210472,0.021747364,0.040199246,0.01136345,0.046371534,27.919779,-14.272897,-0.8739293,0.05219562,0.029793825,0.07124886,3.0063286,-0.0044271164,5.8788695,0.1,0.84253824,0.48797795,0.24098617,0.13261162,inf,inf,inf,inf,1,1,1,1,8,21,8,28,4,0,1,1,1,0
640796505,640796265,45930887,42.3585499,-71.08724959999999,-0.7646367,-1.8837827,4.7860546,135.74428,-67.36629,0.004210472,0.023264082,0.057260133,0.01799242,0.038530484,27.919779,-14.272897,-0.8739293,0.07700932,0.059186503,0.005265717,3.0056503,-0.0044271164,5.8788695,0.1,0.82661176,0.48792088,0.23846327,0.13246104,inf,inf,inf,inf,1,1,1,1,8,21,8,28,4,0,1,1,1,0
641296385,641296198,45930887,42.3585499,-71.08724959999999,-0.84881413,-1.8409239,4.785382,135.74428,-67.36629,0.004210472,0.008359082,0.091973215,0.019507892,0.02328019,27.919779,-14.272897,-0.8739293,0.06733386,0.05133987,-0.016379802,3.0053706,-0.0044271164,5.8788695,0.1,0.83406925,0.4884305,0.23995167,0.13257723,inf,inf,inf,inf,1,1,1,1,8,21,8,28,4,0,1,1,1,0
641796438,641796132,45930887,42.3585499,-71.08724959999999,-0.88366073,-1.8302559,4.8006816,135.74428,-67.36629,0.004210472,0.011831528,0.100580975,0.0033231035,0.013041377,27.919779,-14.272897,-0.8739293,-0.024069702,0.06446459,0.30923414,3.0047078,-0.0044271164,5.8788695,0.1,0.79513586,0.48277482,0.22190641,0.12983455,inf,inf,inf,inf,1,1,1,1,8,21,8,28,4,0,1,1,1,0
642296296,642296065,45930887,42.3585499,-71.08724959999999,-0.9187846,-1.8262243,4.786395,135.74428,-67.36629,0.004210472,0.015561214,0.09877772,0.012884904,0.0010458754,27.919779,-14.272897,-0.8739293,0.01733689,0.058184408,-0.023526767,3.0038977,-0.0044271164,5.8788695,0.1,0.80657625,0.48019594,0.22897524,0.13024043,inf,inf,inf,inf,1,1,1,1,8,21,8,28,4,0,1,1,1,0
642796198,642795998,45930887,42.3585499,-71.08724959999999,-0.9713671,-1.8009485,4.7684546,135.74428,-67.36629,0.004210472,0.010883191,0.10918102,0.008242813,-0.013612445,27.919779,-14.272897,-0.8739293,0.056679565,0.06456487,-0.0637491,3.0034852,-0.0044271164,5.8788695,0.1,0.7868449,0.47912744,0.22466038,0.12976786,inf,inf,inf,inf,1,1,1,1,8,21,8,28,4,0,1,1,1,0
643296121,643295931,45930887,42.3585499,-71.08724959999999,-1.0072424,-1.7836276,4.754168,135.74428,-67.36629,0.004210472,0.012332198,0.11362997,0.016010683,-0.0143350605,27.919779,-14.272897,-0.8739293,-0.09380423,0.073276766,0.118919685,3.00287,-0.0044271164,5.8788695,0.1,0.7946356,0.48040777,0.22861923,0.13042495,inf,inf,inf,inf,1,1,1,1,8,21,8,28,4,0,1,1,1,0
643796048,643795863,45930887,42.3585499,-71.08724959999999,-1.0284971,-1.7809216,4.740444,135.74428,-67.36629,0.004210472,0.016348597,0.10921031,0.009084851,-0.022637729,27.919779,-14.272897,-0.8739293,-0.019836823,0.06382862,0.026638344,3.0021725,-0.0044271164,5.8788695,0.1,0.77810335,0.48015708,0.22602764,0.13029425,inf,inf,inf,inf,1,1,1,1,8,21,8,28,4,0,1,1,1,0
644296007,644295796,45930887,42.3585499,-71.08724959999999,-1.019948,-1.7912447,4.729259,135.74428,-67.36629,0.004210472,0.029305585,0.094999075,0.0037639698,-0.026892921,27.919779,-14.272897,-0.8739293,0.083498105,0.0016035183,-0.08608587,3.001648,-0.0044271164,5.8788695,0.1,0.7916438,0.4829483,0.23351581,0.13158262,inf,inf,inf,inf,1,1,1,1,8,21,8,28,4,0,1,1,1,0
644795950,644795728,45930887,42.3585499,-71.08724959999999,-0.9860995,-1.8207394,4.713663,135.74428,-67.36629,0.004210472,0.048187617,0.066639006,-0.008665327,-0.033870112,27.919779,-14.272897,-0.8739293,0.050253466,-0.033880383,-0.025065148,3.0012655,-0.0044271164,5.8788695,0.10830164,0.7786783,0.4791568,0.23216362,0.13108657,inf,inf,inf,inf,1,1,1,1,8,21,8,28,4,0,1,1,1,0
645295846,645295661,45930887,42.3585499,-71.08724959999999,-0.9570579,-1.8312262,4.7093534,135.74428,-67.36629,0.004210472,0.053656463,0.04125559,-0.013918033,-0.02783813,27.919779,-14.272897,-0.8739293,0.018182654,0.005654983,0.08253788,3.0007043,-0.0044271164,5.8788695,0.10782051,0.79204154,0.4817726,0.23794517,0.13210617,inf,inf,inf,inf,1,1,1,1,8,21,8,28,4,0,1,1,1,0
645795830,645795593,45930887,42.3585499,-71.08724959999999,-0.89411116,-1.8478829,4.7117677,135.74428,-67.36629,0.004210472,0.068156265,0.027583828,-0.0056483643,-0.0060833674,27.919779,-14.272897,-0.8739293,0.029954957,0.014274915,0.0069976933,3.0000546,-0.0044271164,5.8788695,0.11058712,0.7726695,0.48105094,0.23101343,0.13143834,inf,inf,inf,inf,1,1,1,1,8,21,8,28,4,0,1,1,1,0
646295854,646295526,45930887,42.3585499,-71.08724959999999,-0.85703164,-1.834216,4.711349,135.74428,-67.36629,0.004210472,0.06771559,0.032056585,-0.007980213,-0.008387204,27.919779,-14.272897,-0.8739293,0.015579242,0.015252334,0.0043869917,2.9995396,-0.0044271164,5.8788695,0.10351944,0.78550273,0.4791215,0.23644614,0.13171096,inf,inf,inf,inf,1,1,1,1,8,21,8,28,4,0,1,1,1,0
646795661,646795457,45930887,42.3585499,-71.08724959999999,-0.7877684,-1.8437403,4.7244163,135.74428,-67.36629,0.004210472,0.08013733,0.023271706,-0.0017972838,0.010692057,27.919779,-14.272897,-0.8739293,0.0016079028,-0.00022920643,0.063744284,2.9986503,-0.0044271164,5.8788695,0.11352968,0.75866956,0.47648048,0.2238556,0.13005422,inf,inf,inf,inf,1,1,1,1,8,21,8,28,4,0,1,1,1,0
647295777,647295389,45930887,42.3585499,-71.08724959999999,-0.71551025,-1.8343085,4.7396684,135.74428,-67.36629,0.004210472,0.087174304,0.02057846,-0.007056541,0.010950588,27.919779,-14.272897,-0.8739293,0.024629919,0.006549382,-0.01406096,2.9976192,-0.0044271164,5.8788695,0.10433674,0.73185873,0.47288203,0.21113214,0.12800775,inf,inf,inf,inf,1,1,1,1,8,21,8,28,4,0,1,1,1,0
647795512,647795321,45930887,42.3585499,-71.08724959999999,-0.6588998,-1.7989153,4.7389073,135.74428,-67.36629,0.004210472,0.0856513,0.02254497,-0.009890368,0.0030035484,27.919779,-14.272897,-0.8739293,-0.022228034,-0.0015260299,0.047069166,2.9957228,-0.0044271164,5.8788695,0.1,0.73927474,0.4743927,0.21490566,0.12864332,inf,inf,inf,inf,1,1,1,1,8,21,8,28,4,0,1,1,1,0
648295489,648295253,45930887,42.3585499,-71.08724959999999,-0.6053247,-1.7577671,4.7311406,135.74428,-67.36629,0.004210472,0.087327115,0.02574174,-0.013697953,-0.007495127,27.919779,-14.272897,-0.8739293,-0.0097655915,-0.011861414,0.05573683,2.9937437,-0.0044271164,5.8788695,0.1,0.74759734,0.47185734,0.21923542,0.12876575,inf,inf,inf,inf,1,1,1,1,8,21,8,28,4,0,1,1,1,0
648795371,648795184,45930887,42.3585499,-71.08724959999999,-0.5554682,-1.729263,4.720657,135.74428,-67.36629,0.004210472,0.08240378,0.025054894,-0.010455566,-0.009565462,27.919779,-14.272897,-0.8739293,0.03190443,-0.0012060654,0.088097334,2.991078,-0.0044271164,5.8788695,0.10418129,0.7274973,0.4702412,0.2125903,0.1278065,inf,inf,inf,inf,1,1,1,1,8,21,8,28,4,0,1,1,1,0
649295315,649295116,45930887,42.3585499,-71.08724959999999,-0.5147847,-1.712448,4.7208123,135.74428,-67.36629,0.004210472,0.07822318,0.01579095,-0.011960252,-0.0076912595,27.919779,-14.272897,-0.8739293,0.021950535,-0.0102205025,0.05130766,2.9883459,-0.0044271164,5.8788695,0.1,0.7310972,0.47064525,0.2135077,0.12792152,inf,inf,inf,inf,1,1,1,1,8,21,8,28,4,0,1,1,1,0
649795251,649795047,45930887,42.3585499,-71.08724959999999,-0.45200595,-1.6830674,4.7225585,135.74428,-67.36629,0.004210472,0.07853197,0.013044356,-0.010073151,-0.002830873,27.919779,-14.272897,-0.8739293,0.02784447,-0.0063636918,-0.032811195,2.9851596,-0.0044271164,5.8788695,0.1006732,0.71297055,0.46952644,0.20915215,0.1273062,inf,inf,inf,inf,1,1,1,1,8,21,8,28,4,0,1,1,1,0
650295192,650294978,45930887,42.3585499,-71.08724959999999,-0.36118996,-1.6524068,4.7160106,135.74428,-67.36629,0.004210472,0.09424553,0.0068806107,-0.015394192,-0.01099863,27.919779,-14.272897,-0.8739293,-0.015128416,0.001725127,-0.04577625,2.9821146,-0.0044271164,5.8788695,0.10089064,0.7251916,0.46865854,0.21726625,0.12824327,inf,inf,inf,inf,1,1,1,1,8,21,8,28,4,0,1,1,1,0
650795134,650794910,45930887,42.3585499,-71.08724959999999,-0.27208441,-1.631252,4.7292147,135.74428,-67.36629,0.004210472,0.09686162,0.000107131884,0.0023124781,0.017319618,27.919779,-14.272897,-0.8739293,0.008942069,-0.006712313,-0.009024592,2.978843,-0.0044271164,5.8788695,0.1,0.706076,0.4673245,0.21108149,0.12740347,inf,inf,inf,inf,1,1,1,1,8,21,8,28,4,0,1,1,1,0
651295041,651294841,45930887,42.3585499,-71.08724959999999,-0.1784715,-1.6280468,4.7256775,135.74428,-67.36629,0.004210472,0.10075103,-0.011256906,-0.0010820817,0.003116425,27.919779,-14.272897,-0.8739293,-0.033195443,-0.00020273618,0.009373784,2.9755259,-0.0044271164,5.8788695,0.1,0.71692926,0.47019193,0.21728253,0.12863345,inf,inf,inf,inf,1,1,1,1,8,21,8,28,4,0,1,1,1,0
651794955,651794772,45930887,42.3585499,-71.08724959999999,-0.09866418,-1.6028563,4.712906,135.74428,-67.36629,0.004210472,0.10140134,-0.012797407,0.0015567017,-0.0070907087,27.919779,-14.272897,-0.8739293,0.036273,-0.02709482,-0.011499835,2.97201,-0.0044271164,5.8788695,0.1,0.7051306,0.47123882,0.21573956,0.12880048,inf,inf,inf,inf,1,1,1,1,8,21,8,28,4,0,1,1,1,0
652304887,652304701,45930887,42.3585499,-71.08724959999999,-0.05528718,-1.6006964,4.7020273,135.74428,-67.36629,0.004210472,0.08700803,-0.02440116,-0.012174032,-0.023143994,27.919779,-14.272897,-0.8739293,0.0062476923,-0.011443794,0.0347215,2.9677618,-0.0044271164,5.8788695,0.1,0.69911283,0.46489376,0.20714933,0.12657732,inf,inf,inf,inf,1,1,1,1,8,21,8,28,4,0,1,1,1,0
652804816,652804632,45930887,42.3585499,-71.08724959999999,-0.055649247,-1.5558555,4.686125,135.74428,-67.36629,0.004210472,0.053930704,-0.016730018,-0.007818686,-0.02158086,27.919779,-14.272897,-0.8739293,-0.021168865,-0.024488425,-0.022444092,2.9628751,-0.0044271164,5.8788695,0.10463762,0.67770463,0.46226177,0.19937941,0.12515208,inf,inf,inf,inf,1,1,1,1,8,21,8,28,4,0,1,1,1,0
653294773,653294564,45930887,42.3585499,-71.08724959999999,-0.03343318,-1.5005109,4.684373,135.74428,-67.36629,0.004210472,0.042912547,-0.0065585347,-0.0076659033,-0.013758112,27.919779,-14.272897,-0.8739293,0.0036894474,-0.0124689415,-0.0010997537,2.9574609,-0.0044271164,5.8788695,0.10168457,0.6878831,0.4647646,0.20708811,0.12662393,inf,inf,inf,inf,1,1,1,1,8,21,8,28,4,0,1,1,1,0
653794732,653794494,45930887,42.3585499,-71.08724959999999,0.02763355,-1.4589114,4.6907883,135.74428,-67.36629,0.004210472,0.048665125,-0.0067103975,0.004952512,0.00545293,27.919779,-14.272897,-0.8739293,0.022524817,-0.03184289,-0.0086852545,2.9516206,-0.0044271164,5.8788695,0.1,0.6717691,0.46394834,0.20289089,0.126054,inf,inf,inf,inf,1,1,1,1,8,21,8,28,4,0,1,1,1,0
654294614,654294424,45930887,42.3585499,-71.08724959999999,0.08685237,-1.4262462,4.6884513,135.74428,-67.36629,0.004210472,0.051730596,-0.012246136,-0.008168468,-0.008763345,27.919779,-14.272897,-0.8739293,-0.0071862065,-0.03142861,-0.047391545,2.9456816,-0.0044271164,5.8788695,0.1,0.684425,0.46352997,0.2109074,0.1271206,inf,inf,inf,inf,1,1,1,1,8,21,8,28,4,0,1,1,1,0
654794541,654794354,45930887,42.3585499,-71.08724959999999,0.08407329,-1.3753306,4.6627297,135.74428,-67.36629,0.004210472,0.02922197,-0.007251727,-0.015670016,-0.03133012,27.919779,-14.272897,-0.8739293,-0.023176098,-0.035679404,0.0052474816,2.9396064,-0.0044271164,5.8788695,0.1,0.6738311,0.46467808,0.20979694,0.12733659,inf,inf,inf,inf,1,1,1,1,8,21,8,28,4,0,1,1,1,0
655304477,655304283,45930887,42.3585499,-71.08724959999999,0.09236623,-1.3486214,4.631289,135.74428,-67.36629,0.004210472,0.02266451,-0.012228382,-0.019813012,-0.044424716,27.919779,-14.272897,-0.8739293,-0.04045323,0.003421781,0.0797971,2.9335396,-0.0044271164,5.8788695,0.1,0.6985089,0.47208452,0.2243551,0.13031767,inf,inf,inf,inf,1,1,1,1,8,21,8,28,4,0,1,1,1,0
655804516,655804215,45930887,42.3585499,-71.08724959999999,0.11695464,-1.3268847,4.6163898,135.74428,-67.36629,0.004210472,0.024067061,-0.017921248,-0.01679701,-0.035097215,27.919779,-14.272897,-0.8739293,0.013012118,-0.013902777,-0.028202606,2.9278836,-0.0044271164,5.8788695,0.10614061,0.7003655,0.47244698,0.23015414,0.13128854,inf,inf,inf,inf,1,1,1,1,8,21,8,28,4,0,1,1,1,0
656304326,656304143,45930887,42.3585499,-71.08724959999999,0.17606418,-1.3296517,4.6152663,135.74428,-67.36629,0.004210472,0.040997364,-0.030630961,-0.01013896,-0.015877534,27.919779,-14.272897,-0.8739293,0.000445525,-0.022308206,-0.026026217,2.9223626,-0.0044271164,5.8788695,0.10639858,0.7051336,0.47309092,0.22594424,0.1307909,inf,inf,inf,inf,1,1,1,1,8,21,8,28,4,0,1,1,1,0
656794257,656794074,45930887,42.3585499,-71.08724959999999,0.19841987,-1.3190632,4.6200237,135.74428,-67.36629,0.004210472,0.034233596,-0.034724113,-0.01615897,-0.010965751,27.919779,-14.272897,-0.8739293,0.035377037,-0.022506766,0.04324919,2.917023,-0.0044271164,5.8788695,0.10171509,0.6869217,0.47126433,0.21656913,0.12944458,inf,inf,inf,inf,1,1,1,1,8,21,8,28,4,0,1,1,1,0
657294190,657294004,45930887,42.3585499,-71.08724959999999,0.22171625,-1.2911981,4.6029882,135.74428,-67.36629,0.004210472,0.033879224,-0.031477507,-0.019530477,-0.02479084,27.919779,-14.272897,-0.8739293,0.0046875426,-0.025120419,-0.009107776,2.9117632,-0.0044271164,5.8788695,0.1,0.69634,0.4728102,0.21812746,0.12967134,inf,inf,inf,inf,1,1,1,1,8,21,8,28,4,0,1,1,1,0
657794147,657793933,45930887,42.3585499,-71.08724959999999,0.2261075,-1.2225032,4.594438,135.74428,-67.36629,0.004210472,0.024249058,-0.013678102,-0.01805998,-0.019136306,27.919779,-14.272897,-0.8739293,-0.031489234,-0.014853294,-0.025250427,2.9065797,-0.0044271164,5.8788695,0.10983753,0.6873431,0.46958044,0.21606874,0.12901297,inf,inf,inf,inf,1,1,1,1,8,21,8,28,4,0,1,1,1,0
658304200,658303861,45930887,42.3585499,-71.08724959999999,0.2059481,-1.1596776,4.5943575,135.74428,-67.36629,0.004210472,0.0074697044,0.004097143,-0.010604604,-0.0061385045,27.919779,-14.272897,-0.8739293,0.019788802,-0.019077675,-0.06653166,2.9013302,-0.0044271164,5.8788695,0.10238695,0.6855708,0.4732836,0.21865468,0.12998402,inf,inf,inf,inf,1,1,1,1,8,21,8,28,4,0,1,1,1,0
658803976,658803790,45930887,42.3585499,-71.08724959999999,0.17798844,-1.0943286,4.589732,135.74428,-67.36629,0.004210472,-0.009658509,0.01915922,-0.012699025,-0.009812895,27.919779,-14.272897,-0.8739293,-0.0034703203,-0.011349127,-0.029828064,2.8962007,-0.0044271164,5.8788695,0.1,0.7026463,0.47687426,0.22473934,0.1311057,inf,inf,inf,inf,1,1,1,1,8,21,8,28,4,0,1,1,1,0
659304074,659303720,45930887,42.3585499,-71.08724959999999,0.15977968,-1.0403991,4.5831637,135.74428,-67.36629,0.004210472,-0.020435847,0.019284653,-0.012009181,-0.009764325,27.919779,-14.272897,-0.8739293,0.018705558,-0.037351333,-0.014637632,2.8915553,-0.0044271164,5.8788695,0.11305618,0.6806348,0.46991396,0.2122989,0.12852585,inf,inf,inf,inf,1,1,1,1,8,21,8,28,4,0,1,1,1,0
659803835,659803649,45930887,42.3585499,-71.08724959999999,0.16714537,-0.99393886,4.588055,135.74428,-67.36629,0.004210472,-0.022246683,0.00949801,-0.008214991,0.00049719313,27.919779,-14.272897,-0.8739293,-0.02789426,-0.029892111,-0.0006395031,2.8870404,-0.0044271164,5.8788695,0.101080894,0.6944625,0.4727019,0.21756949,0.129444,inf,inf,inf,inf,1,1,1,1,8,21,8,28,4,0,1,1,1,0
660294002,660293579,45930887,42.3585499,-71.08724959999999,0.17344171,-0.94395834,4.596558,135.74428,-67.36629,0.004210472,-0.025300518,0.0022343157,-0.0031860191,0.009930459,27.919779,-14.272897,-0.8739293,-0.024034647,-0.037020247,0.029922755,2.882668,-0.0044271164,5.8788695,0.1,0.7088581,0.47491395,0.22351429,0.13035345,inf,inf,inf,inf,1,1,1,1,8,21,8,28,4,0,1,1,1,0
660793698,660793508,45930887,42.3585499,-71.08724959999999,0.18136695,-0.91994023,4.599024,135.74428,-67.36629,0.004210472,-0.022999447,-0.008628259,-0.0011345638,0.008918814,27.919779,-14.272897,-0.8739293,0.032148734,-0.023191893,-0.033249084,2.878233,-0.0044271164,5.8788695,0.10610676,0.6856752,0.4720323,0.2126229,0.12858519,inf,inf,inf,inf,1,1,1,1,8,21,8,28,4,0,1,1,1,0
661303659,661303435,45930887,42.3585499,-71.08724959999999,0.18391383,-0.87280595,4.5994277,135.74428,-67.36629,0.004210472,-0.028592095,-0.006262144,0.0073360093,0.011531554,27.919779,-14.272897,-0.8739293,-0.089713916,-0.009792426,-0.0045211944,2.8738513,-0.0044271164,5.8788695,0.1,0.70883554,0.4736284,0.22466423,0.13021539,inf,inf,inf,inf,1,1,1,1,8,21,8,28,4,0,1,1,1,0
661803554,661803364,45930887,42.3585499,-71.08724959999999,0.10744838,-0.7766655,4.590852,135.74428,-67.36629,0.004210472,-0.06359017,0.008624816,-0.00028672622,-0.00526612,27.919779,-14.272897,-0.8739293,-0.00011255399,-0.035955638,0.0142893875,2.8697698,-0.0044271164,5.8788695,0.1,0.71440655,0.47863764,0.23320095,0.13212268,inf,inf,inf,inf,1,1,1,1,8,21,8,28,4,0,1,1,1,0
662303482,662303292,45930887,42.3585499,-71.08724959999999,0.0886118,-0.72372144,4.588798,135.74428,-67.36629,0.004210472,-0.061285708,-0.00075842196,0.00064400537,-0.0043251514,27.919779,-14.272897,-0.8739293,-0.022752883,-0.0312953,0.00036020268,2.865851,-0.0044271164,5.8788695,0.1,0.7291948,0.48111573,0.23585941,0.13264403,inf,inf,inf,inf,1,1,1,1,8,21,8,28,4,0,1,1,1,0
662803405,662803220,45930887,42.3585499,-71.08724959999999,0.055561814,-0.67224383,4.5854316,135.74428,-67.36629,0.004210472,-0.06808736,-0.0029082345,0.003268412,-0.002790895,27.919779,-14.272897,-0.8739293,-0.022356404,-0.033220235,0.012193611,2.8617306,-0.0044271164,5.8788695,0.10096645,0.7365185,0.48596582,0.24301851,0.13426623,inf,inf,inf,inf,1,1,1,1,8,21,8,28,4,0,1,1,1,0
663303503,663303149,45930887,42.3585499,-71.08724959999999,0.0011560491,-0.60811716,4.5792947,135.74428,-67.36629,0.004210472,-0.08492915,0.005824301,0.0025760704,-0.008103651,27.919779,-14.272897,-0.8739293,-0.0033807915,-0.01529783,-0.015340574,2.857635,-0.0044271164,5.8788695,0.1,0.7450123,0.4909723,0.24944106,0.13580528,inf,inf,inf,inf,1,1,1,1,8,21,8,28,4,0,1,1,1,0
663793306,663793078,45930887,42.3585499,-71.08724959999999,-0.04509308,-0.53830665,4.56762,135.74428,-67.36629,0.004210472,-0.09432543,0.010133388,-0.0018934144,-0.01668193,27.919779,-14.272897,-0.8739293,-0.0011654245,-0.03669983,0.012328776,2.854035,-0.0044271164,5.8788695,0.1,0.7754499,0.49040586,0.25966868,0.13641623,inf,inf,inf,inf,1,1,1,1,8,21,8,28,4,0,1,1,1,0
664303337,664303005,45930887,42.3585499,-71.08724959999999,-0.072714366,-0.4808723,4.557386,135.74428,-67.36629,0.004210472,-0.09205372,0.004996648,-0.0072982446,-0.022718651,27.919779,-14.272897,-0.8739293,-0.024992675,-0.02284187,-0.022246959,2.850249,-0.0044271164,5.8788695,0.1,0.78812677,0.49649563,0.26620176,0.13798124,inf,inf,inf,inf,1,1,1,1,8,21,8,28,4,0,1,1,1,0
664803202,664802932,45930887,42.3585499,-71.08724959999999,-0.18670964,-0.35924658,4.552359,135.74428,-67.36629,0.004210472,-0.12722036,0.027441844,-0.0018803366,-0.010656789,27.919779,-14.272897,-0.8739293,-0.027253447,-0.022111045,0.060180895,2.8466847,-0.0044271164,5.8788695,0.10335541,0.827104,0.50196713,0.27812195,0.13945544,inf,inf,inf,inf,1,1,1,1,8,21,8,28,4,0,1,1,1,0
665303227,665302860,45930887,42.3585499,-71.08724959999999,-0.1758512,-0.27319297,4.553751,135.74428,-67.36629,0.004210472,-0.09530285,0.032597344,-0.0013044634,-0.005234792,27.919779,-14.272897,-0.8739293,0.02078725,-0.022816032,0.008234946,2.844115,-0.0044271164,5.8788695,0.10818243,0.7988107,0.49142867,0.25022638,0.13508512,inf,inf,inf,inf,1,1,1,1,8,21,8,28,4,0,1,1,1,0
665802974,665802788,45930887,42.3585499,-71.08724959999999,-0.075440235,-0.25020933,4.558187,135.74428,-67.36629,0.004210472,-0.04502583,0.01453151,0.0094280485,0.008295001,27.919779,-14.272897,-0.8739293,-0.018036237,-0.010561671,-0.010269353,2.8433728,-0.0044271164,5.8788695,0.10425472,0.79872274,0.49391177,0.2515072,0.13557272,inf,inf,inf,inf,1,1,1,1,8,21,8,28,4,0,1,1,1,0
666302904,666302715,45930887,42.3585499,-71.08724959999999,-0.016057873,-0.25936928,4.5638804,135.74428,-67.36629,0.004210472,-0.024139049,-0.008540101,0.0014512794,0.0025628996,27.919779,-14.272897,-0.8739293,0.010144886,-0.032195885,0.0018110501,2.8432133,-0.0044271164,5.8788695,0.10437536,0.81670785,0.49579772,0.25450388,0.13581742,inf,inf,inf,inf,1,1,1,1,8,21,8,28,4,0,1,1,1,0
666802832,666802642,45930887,42.3585499,-71.08724959999999,-0.014299451,-0.22154114,4.5666575,135.74428,-67.36629,0.004210472,-0.02073021,-0.017071802,-0.010653498,-0.0070294845,27.919779,-14.272897,-0.8739293,0.0024517402,-0.0453884,-0.053774543,2.8432093,-0.0044271164,5.8788695,0.1,0.7960889,0.49466783,0.24524885,0.13478118,inf,inf,inf,inf,1,1,1,1,8,21,8,28,4,0,1,1,1,0
667292775,667292571,45930887,42.3585499,-71.08724959999999,-0.054967027,-0.1877657,4.5676622,135.74428,-67.36629,0.004210472,-0.033512145,-0.021901613,-0.015093892,-0.004724651,27.919779,-14.272897,-0.8739293,0.0030905888,-0.020653652,0.01896849,2.843852,-0.0044271164,5.8788695,0.10995817,0.81991816,0.4971698,0.25406063,0.13575825,inf,inf,inf,inf,1,1,1,1,8,21,8,28,4,0,1,1,1,0
667802712,667802498,45930887,42.3585499,-71.08724959999999,-0.047328826,-0.17561233,4.5789456,135.74428,-67.36629,0.004210472,-0.020933894,-0.026268272,-0.0025061548,0.015541034,27.919779,-14.272897,-0.8739293,-0.017331995,-0.037643954,0.16837437,2.8444088,-0.0044271164,5.8788695,0.10482693,0.8070548,0.4935346,0.24983647,0.13486761,inf,inf,inf,inf,1,1,1,1,8,21,8,28,4,0,1,1,1,0
668302758,668302423,45930887,42.3585499,-71.08724959999999,-0.01745706,-0.16863441,4.575859,135.74428,-67.36629,0.004210472,-0.0037472364,-0.027046597,0.0069982847,0.012604877,27.919779,-14.272897,-0.8739293,0.027255408,-0.018916935,0.0052790456,2.8462307,-0.0044271164,5.8788695,0.1,0.7759098,0.49008057,0.2345136,0.13287364,inf,inf,inf,inf,1,1,1,1,8,21,8,28,4,0,1,1,1,0
668802572,668802350,45930887,42.3585499,-71.08724959999999,-0.004961464,-0.17751087,4.5776715,135.74428,-67.36629,0.004210472,-0.0025962011,-0.039852273,0.0032592556,0.006777447,27.919779,-14.272897,-0.8739293,0.0029479624,-0.0377985,-0.01640173,2.8485243,-0.0044271164,5.8788695,0.1,0.79196745,0.49208608,0.23989819,0.13355751,inf,inf,inf,inf,1,1,1,1,8,21,8,28,4,0,1,1,1,0
669302517,669302277,45930887,42.3585499,-71.08724959999999,0.026737178,-0.19186267,4.582076,135.74428,-67.36629,0.004210472,0.0046615703,-0.05560651,-0.008033309,-0.0008882331,27.919779,-14.272897,-0.8739293,-0.00035642358,-0.04293971,0.01905089,2.8503587,-0.0044271164,5.8788695,0.102767944,0.809708,0.48954105,0.24647442,0.1336578,inf,inf,inf,inf,1,1,1,1,8,21,8,28,4,0,1,1,1,0
669802403,669802203,45930887,42.3585499,-71.08724959999999,0.063725226,-0.21026118,4.5910153,135.74428,-67.36629,0.004210472,0.01711067,-0.06306897,-0.0068162475,0.0075930194,27.919779,-14.272897,-0.8739293,0.047943104,-0.027793443,-0.0029185405,2.8522267,-0.0044271164,5.8788695,0.1,0.8030867,0.49122962,0.24771626,0.13418497,inf,inf,inf,inf,1,1,1,1,8,21,8,28,4,0,1,1,1,0
670302596,670302130,45930887,42.3585499,-71.08724959999999,0.10653845,-0.22259043,4.590816,135.74428,-67.36629,0.004210472,0.036200408,-0.063506454,7.031366e-05,0.0084003,27.919779,-14.272897,-0.8739293,-0.029921947,0.023873271,0.055861857,2.854377,-0.0044271164,5.8788695,0.10393715,0.78620416,0.49093124,0.24130543,0.1336808,inf,inf,inf,inf,1,1,1,1,8,21,8,28,4,0,1,1,1,0
670802241,670802056,45930887,42.3585499,-71.08724959999999,0.12666668,-0.20039147,4.602573,135.74428,-67.36629,0.004210472,0.037549287,-0.047650337,0.012723515,0.023819707,27.919779,-14.272897,-0.8739293,0.017844932,-0.0048909467,0.03617303,2.8564603,-0.0044271164,5.8788695,0.1,0.8073757,0.49413148,0.2496941,0.13487719,inf,inf,inf,inf,1,1,1,1,8,21,8,28,4,0,1,1,1,0
671302226,671301982,45930887,42.3585499,-71.08724959999999,0.15048194,-0.14094901,4.6070967,135.74428,-67.36629,0.004210472,0.037413288,-0.024367392,0.0058822064,0.011063716,27.919779,-14.272897,-0.8739293,0.019147592,-0.0326595,-0.055735692,2.8583238,-0.0044271164,5.8788695,0.1,0.7855666,0.4834038,0.23096208,0.13117282,inf,inf,inf,inf,1,1,1,1,8,21,8,28,4,0,1,1,1,0
671802144,671801908,45930887,42.3585499,-71.08724959999999,0.19740285,-0.15494886,4.612867,135.74428,-67.36629,0.004210472,0.05018049,-0.035059385,0.003907656,0.009999343,27.919779,-14.272897,-0.8739293,0.013703643,-0.0109878015,-0.07731271,2.860396,-0.0044271164,5.8788695,0.10381889,0.7609233,0.4808377,0.22202015,0.1298954,inf,inf,inf,inf,1,1,1,1,8,21,8,28,4,0,1,1,1,0
672302067,672301834,45930887,42.3585499,-71.08724959999999,0.16806647,-0.1478503,4.621399,135.74428,-67.36629,0.004210472,0.03426265,-0.028048089,0.00019641708,0.010428813,27.919779,-14.272897,-0.8739293,-0.003195093,0.015182839,0.08052979,2.862195,-0.0044271164,5.8788695,0.10048866,0.76312226,0.48030046,0.22161181,0.12968661,inf,inf,inf,inf,1,1,1,1,8,21,8,28,4,0,1,1,1,0
672801951,672801760,45930887,42.3585499,-71.08724959999999,0.12604608,-0.15254445,4.621432,135.74428,-67.36629,0.004210472,0.011169901,-0.02399519,0.009917965,0.012823241,27.919779,-14.272897,-0.8739293,0.027681278,-0.003768303,-0.010216895,2.8638363,-0.0044271164,5.8788695,0.1,0.75022495,0.48092484,0.22227469,0.13007124,inf,inf,inf,inf,1,1,1,1,8,21,8,28,4,0,1,1,1,0
673301921,673301685,45930887,42.3585499,-71.08724959999999,0.13758942,-0.18343675,4.6160803,135.74428,-67.36629,0.004210472,0.012380574,-0.030706175,0.008880217,0.0018733323,27.919779,-14.272897,-0.8739293,0.0036080594,-0.014101919,0.0064673624,2.8655906,-0.0044271164,5.8788695,0.1,0.7545596,0.4766955,0.22339754,0.12955439,inf,inf,inf,inf,1,1,1,1,8,21,8,28,4,0,1,1,1,0
673801821,673801611,45930887,42.3585499,-71.08724959999999,0.14295758,-0.2216987,4.596795,135.74428,-67.36629,0.004210472,0.008061713,-0.043627433,-0.009206865,-0.026859071,27.919779,-14.272897,-0.8739293,0.068982,-0.055408757,0.022578418,2.8672664,-0.0044271164,5.8788695,0.1,0.7384641,0.47657654,0.22147916,0.12952027,inf,inf,inf,inf,1,1,1,1,8,21,8,28,4,0,1,1,1,0
674301738,674301536,45930887,42.3585499,-71.08724959999999,0.16784279,-0.2715468,4.585878,135.74428,-67.36629,0.004210472,0.016447313,-0.059975393,-0.013548112,-0.026867237,27.919779,-14.272897,-0.8739293,0.0024008176,-0.0150729,-0.0036349506,2.8688219,-0.0044271164,5.8788695,0.10168314,0.7518445,0.4796277,0.22893094,0.13089177,inf,inf,inf,inf,1,1,1,1,8,21,8,28,4,0,1,1,1,0
674801682,674801461,45930887,42.3585499,-71.08724959999999,0.17707431,-0.30374548,4.575381,135.74428,-67.36629,0.004210472,0.01773652,-0.05878671,-0.009134539,-0.019814195,27.919779,-14.272897,-0.8739293,0.008953873,-0.004853137,0.026519643,2.8705993,-0.0044271164,5.8788695,0.1021595,0.7301976,0.47826675,0.22084169,0.12997913,inf,inf,inf,inf,1,1,1,1,8,21,8,28,4,0,1,1,1,0
675301571,675301386,45930887,42.3585499,-71.08724959999999,0.19633727,-0.32689205,4.5870285,135.74428,-67.36629,0.004210472,0.015972061,-0.052823413,-0.0019066373,0.002816584,27.919779,-14.272897,-0.8739293,-0.004860006,-0.01662787,-0.02686539,2.8723617,-0.0044271164,5.8788695,0.11051321,0.7381159,0.47537163,0.22394432,0.12990826,inf,inf,inf,inf,1,1,1,1,8,21,8,28,4,0,1,1,1,0
675801499,675801311,45930887,42.3585499,-71.08724959999999,0.24866045,-0.3819918,4.5906816,135.74428,-67.36629,0.004210472,0.023101982,-0.062876545,-0.0074479547,-0.00034206046,27.919779,-14.272897,-0.8739293,0.0049870154,-0.047189865,0.028044624,2.873364,-0.0044271164,5.8788695,0.10626221,0.71846443,0.4741929,0.21714869,0.12908217,inf,inf,inf,inf,1,1,1,1,8,21,8,28,4,0,1,1,1,0
676301424,676301236,45930887,42.3585499,-71.08724959999999,0.302531,-0.4080214,4.593293,135.74428,-67.36629,0.004210472,0.029457953,-0.05531111,-0.0127228955,-0.0026908857,27.919779,-14.272897,-0.8739293,0.019929633,-0.0015358076,0.022589058,2.8742642,-0.0044271164,5.8788695,0.10363865,0.7093247,0.4701849,0.2077128,0.12708044,inf,inf,inf,inf,1,1,1,1,8,21,8,28,4,0,1,1,1,0
676801484,676801160,45930887,42.3585499,-71.08724959999999,0.3800068,-0.43410584,4.603998,135.74428,-67.36629,0.004210472,0.038044803,-0.042118993,0.0036527005,0.019365786,27.919779,-14.272897,-0.8739293,0.011336239,0.007164633,0.018695323,2.875309,-0.0044271164,5.8788695,0.10153437,0.69799286,0.46682328,0.20870693,0.12691863,inf,inf,inf,inf,1,1,1,1,8,21,8,28,4,0,1,1,1,0
677301270,677301085,45930887,42.3585499,-71.08724959999999,0.44776994,-0.46973792,4.605803,135.74428,-67.36629,0.004210472,0.04710681,-0.03441783,0.007259651,0.014346976,27.919779,-14.272897,-0.8739293,0.030286781,-0.007088925,0.01429109,2.8765364,-0.0044271164,5.8788695,0.1,0.7127754,0.4706751,0.21809617,0.12873746,inf,inf,inf,inf,1,1,1,1,8,21,8,28,4,0,1,1,1,0
677801211,677801010,45930887,42.3585499,-71.08724959999999,0.5523584,-0.53664136,4.6060324,135.74428,-67.36629,0.004210472,0.062742285,-0.043509178,0.003135011,0.004904201,27.919779,-14.272897,-0.8739293,0.018693326,-0.00046757646,-0.037033718,2.8781161,-0.0044271164,5.8788695,0.1,0.70706916,0.47352636,0.22166319,0.12985897,inf,inf,inf,inf,1,1,1,1,8,21,8,28,4,0,1,1,1,0
678301170,678300933,45930887,42.3585499,-71.08724959999999,0.6954677,-0.63491,4.603454,135.74428,-67.36629,0.004210472,0.088492475,-0.061125934,-0.010573494,-0.010319274,27.919779,-14.272897,-0.8739293,0.027644794,-0.017375737,-0.05016625,2.8799546,-0.0044271164,5.8788695,0.10018206,0.71139383,0.47408965,0.22038646,0.12973471,inf,inf,inf,inf,1,1,1,1,8,21,8,28,4,0,1,1,1,0
678801254,678800857,45930887,42.3585499,-71.08724959999999,0.8303127,-0.71475285,4.597035,135.74428,-67.36629,0.004210472,0.10469276,-0.063365825,-0.00887442,-0.011079009,27.919779,-14.272897,-0.8739293,0.041069612,0.017400844,-0.042115755,2.8816824,-0.0044271164,5.8788695,0.1,0.7016965,0.47140414,0.2200644,0.12949954,inf,inf,inf,inf,1,1,1,1,8,21,8,28,4,0,1,1,1,0
679300969,679300782,45930887,42.3585499,-71.08724959999999,0.90807414,-0.7422555,4.5936203,135.74428,-67.36629,0.004210472,0.100479394,-0.04456106,0.006294901,0.004829023,27.919779,-14.272897,-0.8739293,-0.014339898,0.023196872,-0.010643348,2.883234,-0.0044271164,5.8788695,0.10131168,0.6975023,0.46921593,0.21187039,0.12798794,inf,inf,inf,inf,1,1,1,1,8,21,8,28,4,0,1,1,1,0
679800891,679800705,45930887,42.3585499,-71.08724959999999,0.97122127,-0.7809574,4.5972176,135.74428,-67.36629,0.004210472,0.09308067,-0.034418464,-0.0007628953,0.003046105,27.919779,-14.272897,-0.8739293,0.0043654204,0.017790506,0.100671045,2.884583,-0.0044271164,5.8788695,0.100031376,0.6811237,0.4681485,0.20741554,0.1273006,inf,inf,inf,inf,1,1,1,1,8,21,8,28,4,0,1,1,1,0
680300817,680300629,45930887,42.3585499,-71.08724959999999,1.0747342,-0.83647203,4.599338,135.74428,-67.36629,0.004210472,0.10385623,-0.031157454,-0.0027022876,0.0026320273,27.919779,-14.272897,-0.8739293,-0.037319925,0.03390174,-0.0059964755,2.8862145,-0.0044271164,5.8788695,0.10396862,0.6960579,0.47186399,0.21580373,0.1289121,inf,inf,inf,inf,1,1,1,1,8,21,8,28,4,0,1,1,1,0
680800769,680800553,45930887,42.3585499,-71.08724959999999,1.1737989,-0.86731696,4.6114345,135.74428,-67.36629,0.004210472,0.10428251,-0.018403845,0.003027253,0.01492041,27.919779,-14.272897,-0.8739293,-0.04083023,0.032879997,0.009757516,2.8875773,-0.0044271164,5.8788695,0.10264683,0.6799014,0.4668147,0.20983006,0.12751684,inf,inf,inf,inf,1,1,1,1,8,21,8,28,4,0,1,1,1,0
681300666,681300476,45930887,42.3585499,-71.08724959999999,1.2765746,-0.8736428,4.625737,135.74428,-67.36629,0.004210472,0.09985537,0.005331713,0.011338119,0.026365321,27.919779,-14.272897,-0.8739293,-0.07035077,0.0393444,-0.115598164,2.8892887,-0.0044271164,5.8788695,0.1,0.6955407,0.47064775,0.21807224,0.12910707,inf,inf,inf,inf,1,1,1,1,8,21,8,28,4,0,1,1,1,0
681800590,681800400,45930887,42.3585499,-71.08724959999999,1.3646173,-0.9108963,4.632382,135.74428,-67.36629,0.004210472,0.100883126,0.010217859,0.010006999,0.02158788,27.919779,-14.272897,-0.8739293,0.037051067,0.0150863975,0.053574808,2.8907535,-0.0044271164,5.8788695,0.10000801,0.68487155,0.47168273,0.21618214,0.12918964,inf,inf,inf,inf,1,1,1,1,8,21,8,28,4,0,1,1,1,0
682300517,682300323,45930887,42.3585499,-71.08724959999999,1.4919412,-0.9781338,4.6340322,135.74428,-67.36629,0.004210472,0.12542254,-8.902894e-05,0.014096502,0.015298046,27.919779,-14.272897,-0.8739293,0.0372257,0.015362008,-0.0025951953,2.8919117,-0.0044271164,5.8788695,0.1,0.7040889,0.47631693,0.22573958,0.13100211,inf,inf,inf,inf,1,1,1,1,8,21,8,28,4,0,1,1,1,0
682800489,682800246,45930887,42.3585499,-71.08724959999999,1.6005877,-1.0156981,4.6322665,135.74428,-67.36629,0.004210472,0.13276277,0.006363109,0.013168929,0.005813987,27.919779,-14.272897,-0.8739293,0.009300431,0.020855933,-0.040985987,2.8932576,-0.0044271164,5.8788695,0.1,0.6873124,0.47130606,0.21828106,0.12947255,inf,inf,inf,inf,1,1,1,1,8,21,8,28,4,0,1,1,1,0
683300499,683300169,45930887,42.3585499,-71.08724959999999,1.6589247,-1.0318921,4.622332,135.74428,-67.36629,0.004210472,0.11621895,0.014929361,0.0064433087,-0.008739261,27.919779,-14.272897,-0.8739293,0.01379748,0.025830977,-0.0020536296,2.8948882,-0.0044271164,5.8788695,0.1,0.706393,0.47565162,0.22712986,0.13109353,inf,inf,inf,inf,1,1,1,1,8,21,8,28,4,0,1,1,1,0
683800311,683800091,45930887,42.3585499,-71.08724959999999,1.7085115,-1.0553544,4.601408,135.74428,-67.36629,0.004210472,0.10921475,0.01622862,9.2238144e-05,-0.026279213,27.919779,-14.272897,-0.8739293,-0.006385446,0.022072414,0.027988061,2.8962057,-0.0044271164,5.8788695,0.1,0.69421315,0.47641277,0.222823,0.1308397,inf,inf,inf,inf,1,1,1,1,8,21,8,28,4,0,1,1,1,0
684300198,684300014,45930887,42.3585499,-71.08724959999999,1.7703618,-1.0590429,4.598811,135.74428,-67.36629,0.004210472,0.10479403,0.030477447,0.0064411107,-0.0110027315,27.919779,-14.272897,-0.8739293,-0.0053579803,0.02740932,0.031802874,2.8975034,-0.0044271164,5.8788695,0.1,0.7068714,0.47880423,0.22644925,0.1314577,inf,inf,inf,inf,1,1,1,1,8,21,8,28,4,0,1,1,1,0
684800186,684799937,45930887,42.3585499,-71.08724959999999,1.8056056,-1.0649374,4.5870743,135.74428,-67.36629,0.004210472,0.07954604,0.038656,0.0023994164,-0.018707572,27.919779,-14.272897,-0.8739293,-0.044316236,0.018768298,0.032286797,2.8988857,-0.0044271164,5.8788695,0.1,0.6678608,0.4664838,0.20317978,0.12652926,inf,inf,inf,inf,1,1,1,1,8,21,8,28,4,0,1,1,1,0
685300045,685299859,45930887,42.3585499,-71.08724959999999,1.8519078,-1.1053967,4.5709224,135.74428,-67.36629,0.004210472,0.07052729,0.026790278,-0.0060432907,-0.02784517,27.919779,-14.272897,-0.8739293,-0.009834611,0.006812341,0.051875286,2.9001586,-0.0044271164,5.8788695,0.10686588,0.6741855,0.46698457,0.2046907,0.1266208,inf,inf,inf,inf,1,1,1,1,8,21,8,28,4,0,1,1,1,0
685800013,685799782,45930887,42.3585499,-71.08724959999999,1.9079449,-1.1451334,4.5730247,135.74428,-67.36629,0.004210472,0.06843964,0.01687273,-0.011435859,-0.019771796,27.919779,-14.272897,-0.8739293,0.026440656,0.0040390026,-0.06402544,2.901558,-0.0044271164,5.8788695,0.10438347,0.67169523,0.46993804,0.20984009,0.12791763,inf,inf,inf,inf,1,1,1,1,8,21,8,28,4,0,1,1,1,0
686299919,686299704,45930887,42.3585499,-71.08724959999999,1.9789991,-1.1630837,4.5666695,135.74428,-67.36629,0.004210472,0.07416183,0.015470074,-0.008109013,-0.014806197,27.919779,-14.272897,-0.8739293,0.012541834,0.018621132,-0.036106084,2.902972,-0.0044271164,5.8788695,0.1,0.6836169,0.47223467,0.21426673,0.12874754,inf,inf,inf,inf,1,1,1,1,8,21,8,28,4,0,1,1,1,0
686799891,686799627,45930887,42.3585499,-71.08724959999999,2.062688,-1.1826928,4.5532355,135.74428,-67.36629,0.004210472,0.078064255,0.016530588,-0.013847314,-0.024831824,27.919779,-14.272897,-0.8739293,0.032669313,0.0048697,-0.058547962,2.9043226,-0.0044271164,5.8788695,0.1,0.6844471,0.47184086,0.2203001,0.12966439,inf,inf,inf,inf,1,1,1,1,8,21,8,28,4,0,1,1,1,0
687299736,687299548,45930887,42.3585499,-71.08724959999999,2.0973063,-1.1725826,4.549129,135.74428,-67.36629,0.004210472,0.07164004,0.030085962,-0.010453476,-0.013440867,27.919779,-14.272897,-0.8739293,0.007912897,0.031133339,-0.0017389703,2.9054635,-0.0044271164,5.8788695,0.11248827,0.7049123,0.4762346,0.22897024,0.13129382,inf,inf,inf,inf,1,1,1,1,8,21,8,28,4,0,1,1,1,0
687799681,687799470,45930887,42.3585499,-71.08724959999999,2.171855,-1.1759686,4.5613713,135.74428,-67.36629,0.004210472,0.07642352,0.03367754,-0.002125818,0.00798006,27.919779,-14.272897,-0.8739293,-0.000744013,0.025272502,-0.03808321,2.9069257,-0.0044271164,5.8788695,0.106870174,0.7023002,0.47926804,0.23045953,0.13213053,inf,inf,inf,inf,1,1,1,1,8,21,8,28,4,0,1,1,1,0
688299590,688299391,45930887,42.3585499,-71.08724959999999,2.1869447,-1.1999013,4.5766406,135.74428,-67.36629,0.004210472,0.05747255,0.021987932,-0.005754418,0.012450063,27.919779,-14.272897,-0.8739293,-0.026647603,-0.0010696845,-0.059475314,2.9079041,-0.0044271164,5.8788695,0.102220535,0.71454287,0.48129848,0.23202924,0.13246424,inf,inf,inf,inf,1,1,1,1,8,21,8,28,4,0,1,1,1,0
688799534,688799313,45930887,42.3585499,-71.08724959999999,2.1896858,-1.2111278,4.58211,135.74428,-67.36629,0.004210472,0.03923322,0.010685958,-0.013880853,0.0039021163,27.919779,-14.272897,-0.8739293,-0.02026143,0.006899339,-0.006668819,2.9082239,-0.0044271164,5.8788695,0.10557747,0.7086012,0.47908086,0.23141743,0.1322022,inf,inf,inf,inf,1,1,1,1,8,21,8,28,4,0,1,1,1,0
689299464,689299235,45930887,42.3585499,-71.08724959999999,2.2334619,-1.2155073,4.585977,135.74428,-67.36629,0.004210472,0.047082666,0.007421548,-0.0102205025,0.0074371737,27.919779,-14.272897,-0.8739293,-0.024727385,0.011872625,0.0004873644,2.9091127,-0.0044271164,5.8788695,0.10204172,0.6933373,0.47368458,0.21340954,0.12891547,inf,inf,inf,inf,1,1,1,1,8,21,8,28,4,0,1,1,1,0
689799343,689799156,45930887,42.3585499,-71.08724959999999,2.2491598,-1.1875128,4.601422,135.74428,-67.36629,0.004210472,0.037883814,0.02134466,0.0047712466,0.028933711,27.919779,-14.272897,-0.8739293,0.0010915749,0.018524673,-0.17408602,2.910171,-0.0044271164,5.8788695,0.10619736,0.6794118,0.4730594,0.20924273,0.12830399,inf,inf,inf,inf,1,1,1,1,8,21,8,28,4,0,1,1,1,0
690299263,690299077,45930887,42.3585499,-71.08724959999999,2.258959,-1.1928859,4.622972,135.74428,-67.36629,0.004210472,0.027207918,0.020829003,0.016656963,0.042759128,27.919779,-14.272897,-0.8739293,-0.008076907,-0.004450769,-0.08023675,2.9108176,-0.0044271164,5.8788695,0.10525465,0.69029915,0.4748688,0.21335545,0.12894951,inf,inf,inf,inf,1,1,1,1,8,21,8,28,4,0,1,1,1,0
690799182,690798998,45930887,42.3585499,-71.08724959999999,2.3348024,-1.2341269,4.6507,135.74428,-67.36629,0.004210472,0.042851537,0.0034510137,0.020636393,0.0469025,27.919779,-14.272897,-0.8739293,0.00509278,-0.005019494,-0.09149792,2.911623,-0.0044271164,5.8788695,0.1,0.68268204,0.47200024,0.21424286,0.12876071,inf,inf,inf,inf,1,1,1,1,8,21,8,28,4,0,1,1,1,0
691299182,691298919,45930887,42.3585499,-71.08724959999999,2.418995,-1.3035134,4.6461024,135.74428,-67.36629,0.004210472,0.05558571,-0.022976961,0.007583294,0.011560595,27.919779,-14.272897,-0.8739293,-0.042993624,-0.008829354,0.0017485665,2.911986,-0.0044271164,5.8788695,0.1,0.68545884,0.47156212,0.21213588,0.12824766,inf,inf,inf,inf,1,1,1,1,8,21,8,28,4,0,1,1,1,0
691799031,691798840,45930887,42.3585499,-71.08724959999999,2.4695218,-1.3420961,4.6353617,135.74428,-67.36629,0.004210472,0.051377587,-0.03012123,0.012481708,0.0017972232,27.919779,-14.272897,-0.8739293,0.03235087,-0.0074100373,-0.051304884,2.9119298,-0.0044271164,5.8788695,0.1,0.67464936,0.47245726,0.21155043,0.12846138,inf,inf,inf,inf,1,1,1,1,8,21,8,28,4,0,1,1,1,0
692299032,692298761,45930887,42.3585499,-71.08724959999999,2.5542567,-1.4006029,4.624793,135.74428,-67.36629,0.004210472,0.05422733,-0.03757021,0.011349182,-0.0059873443,27.919779,-14.272897,-0.8739293,-0.009996717,0.0018908862,-0.031060798,2.9121087,-0.0044271164,5.8788695,0.1,0.6917969,0.47643313,0.22050455,0.13013566,inf,inf,inf,inf,1,1,1,1,8,21,8,28,4,0,1,1,1,0
692799058,692798681,45930887,42.3585499,-71.08724959999999,2.660492,-1.4823326,4.6177087,135.74428,-67.36629,0.004210472,0.07038069,-0.053717576,0.010675391,-0.007992437,27.919779,-14.272897,-0.8739293,0.014674853,-0.0011203301,0.2619347,2.9122064,-0.0044271164,5.8788695,0.1,0.68141884,0.4731221,0.21883261,0.12961607,inf,inf,inf,inf,1,1,1,1,8,21,8,28,4,0,1,1,1,0
693298787,693298602,45930887,42.3585499,-71.08724959999999,2.7357047,-1.5603622,4.6030135,135.74428,-67.36629,0.004210472,0.07214898,-0.06842434,0.0036061127,-0.02211772,27.919779,-14.272897,-0.8739293,0.0027853649,-0.018876927,-0.0108031295,2.9121404,-0.0044271164,5.8788695,0.1,0.69772,0.47647873,0.22550194,0.13085349,inf,inf,inf,inf,1,1,1,1,8,21,8,28,4,0,1,1,1,0
693798710,693798522,45930887,42.3585499,-71.08724959999999,2.8005693,-1.6355578,4.58533,135.74428,-67.36629,0.004210472,0.06615706,-0.07895499,0.009226508,-0.022351595,27.919779,-14.272897,-0.8739293,-0.0062083853,-0.010319879,-0.051725153,2.9122624,-0.0044271164,5.8788695,0.1,0.68974274,0.47820255,0.22427966,0.1311635,inf,inf,inf,inf,1,1,1,1,8,21,8,28,4,0,1,1,1,0
694298690,694298442,45930887,42.3585499,-71.08724959999999,2.8609684,-1.7159135,4.5606017,135.74428,-67.36629,0.004210472,0.0656702,-0.08892718,0.0020432202,-0.036576368,27.919779,-14.272897,-0.8739293,0.014196255,-0.010348373,-0.026039071,2.9123528,-0.0044271164,5.8788695,0.1,0.7000437,0.47534746,0.2253631,0.13071772,inf,inf,inf,inf,1,1,1,1,8,21,8,28,4,0,1,1,1,0
694798573,694798362,45930887,42.3585499,-71.08724959999999,2.962902,-1.8074824,4.5342183,135.74428,-67.36629,0.004210472,0.07486505,-0.097880796,-0.015511337,-0.054720316,27.919779,-14.272897,-0.8739293,-0.034976803,0.0011595639,0.015924431,2.9127083,-0.0044271164,5.8788695,0.10269451,0.68630576,0.47532326,0.22051013,0.13024457,inf,inf,inf,inf,1,1,1,1,8,21,8,28,4,0,1,1,1,0
695298479,695298282,45930887,42.3585499,-71.08724959999999,3.077662,-1.9070371,4.518616,135.74428,-67.36629,0.004210472,0.07637733,-0.10593846,-0.015441829,-0.042828374,27.919779,-14.272897,-0.8739293,-0.035204202,-0.0023069696,-0.022940654,2.9129915,-0.0044271164,5.8788695,0.10963869,0.70915395,0.48013067,0.2311752,0.13210043,inf,inf,inf,inf,1,1,1,1,8,21,8,28,4,0,1,1,1,0
695798419,695798202,45930887,42.3585499,-71.08724959999999,3.1560278,-1.9809974,4.507281,135.74428,-67.36629,0.004210472,0.07052087,-0.10566159,-0.0202478,-0.03768474,27.919779,-14.272897,-0.8739293,0.0067957863,-0.006757894,-0.015237677,2.913664,-0.0044271164,5.8788695,0.10723591,0.6959233,0.4804233,0.22596234,0.1316741,inf,inf,inf,inf,1,1,1,1,8,21,8,28,4,0,1,1,1,0
696298340,696298122,45930887,42.3585499,-71.08724959999999,3.2510576,-2.062121,4.4907837,135.74428,-67.36629,0.004210472,0.07590642,-0.11267177,-0.026573487,-0.0404917,27.919779,-14.272897,-0.8739293,-0.034367383,0.0015117992,0.031183368,2.9139345,-0.0044271164,5.8788695,0.110720634,0.72313005,0.4814302,0.23846911,0.13307784,inf,inf,inf,inf,1,1,1,1,8,21,8,28,4,0,1,1,1,0
696798248,696798042,45930887,42.3585499,-71.08724959999999,3.3543012,-2.1416202,4.484309,135.74428,-67.36629,0.004210472,0.07262032,-0.11110586,-0.022993177,-0.025294684,27.919779,-14.272897,-0.8739293,-0.031388983,0.002691901,0.024242874,2.9144318,-0.0044271164,5.8788695,0.11503124,0.6846461,0.4749867,0.2149541,0.12937061,inf,inf,inf,inf,1,1,1,1,8,21,8,28,4,0,1,1,1,0
697298248,697297961,45930887,42.3585499,-71.08724959999999,3.4293318,-2.1993866,4.487954,135.74428,-67.36629,0.004210472,0.05772739,-0.1007284,-0.024017245,-0.015041703,27.919779,-14.272897,-0.8739293,-0.04752442,-0.028818408,-0.044392902,2.9150128,-0.0044271164,5.8788695,0.10428524,0.6942057,0.47612932,0.21710105,0.12961362,inf,inf,inf,inf,1,1,1,1,8,21,8,28,4,0,1,1,1,0
697798133,697797880,45930887,42.3585499,-71.08724959999999,3.5254335,-2.2780309,4.481358,135.74428,-67.36629,0.004210472,0.057191078,-0.102204025,-0.026638573,-0.016944757,27.919779,-14.272897,-0.8739293,-0.00958881,-0.0038043337,-0.03869787,2.9156852,-0.0044271164,5.8788695,0.10406685,0.6801248,0.47549367,0.212432,0.12898977,inf,inf,inf,inf,1,1,1,1,8,21,8,28,4,0,1,1,1,0
698298031,698297799,45930887,42.3585499,-71.08724959999999,3.6238647,-2.3559427,4.4617167,135.74428,-67.36629,0.004210472,0.061506703,-0.0997838,-0.035488665,-0.03364074,27.919779,-14.272897,-0.8739293,-0.005346472,-0.0027678194,-0.0025107267,2.9163053,-0.0044271164,5.8788695,0.10638142,0.70092595,0.4754957,0.22303295,0.13021162,inf,inf,inf,inf,1,1,1,1,8,21,8,28,4,0,1,1,1,0
698797903,698797719,45930887,42.3585499,-71.08724959999999,3.735167,-2.4286864,4.434779,135.74428,-67.36629,0.004210472,0.07664693,-0.09355556,-0.0381949,-0.043575026,27.919779,-14.272897,-0.8739293,-0.010454838,0.011783916,-0.07341482,2.9158993,-0.0044271164,5.8788695,0.10502958,0.68016285,0.4731075,0.21334197,0.12873925,inf,inf,inf,inf,1,1,1,1,8,21,8,28,4,0,1,1,1,0
699297893,699297638,45930887,42.3585499,-71.08724959999999,3.822115,-2.5119345,4.41792,135.74428,-67.36629,0.004210472,0.07096509,-0.09252328,-0.0312971,-0.034054104,27.919779,-14.272897,-0.8739293,-0.014273249,0.003936494,-0.012893455,2.9147627,-0.0044271164,5.8788695,0.10766411,0.699011,0.47702625,0.22248848,0.13038771,inf,inf,inf,inf,1,1,1,1,8,21,8,28,4,0,1,1,1,0
699797748,699797556,45930887,42.3585499,-71.08724959999999,3.8704772,-2.5798707,4.412368,135.74428,-67.36629,0.004210472,0.054661974,-0.086501256,-0.029279562,-0.024091499,27.919779,-14.272897,-0.8739293,-0.019333513,0.0050361063,-0.0077099553,2.9135764,-0.0044271164,5.8788695,0.102184296,0.67965895,0.47511333,0.2137,0.12911452,inf,inf,inf,inf,1,1,1,1,8,21,8,28,4,0,1,1,1,0
700297694,700297475,45930887,42.3585499,-71.08724959999999,3.925,-2.64762,4.4012074,135.74428,-67.36629,0.004210472,0.052199543,-0.08189943,-0.036265157,-0.029595345,27.919779,-14.272897,-0.8739293,0.081520714,-0.048802085,-0.2983275,2.911171,-0.0044271164,5.8788695,0.10541773,0.6966754,0.47418258,0.22168986,0.1298909,inf,inf,inf,inf,1,1,1,1,8,21,8,28,4,0,1,1,1,0
700797580,700797394,45930887,42.3585499,-71.08724959999999,3.9465876,-2.6949806,4.395201,135.74428,-67.36629,0.004210472,0.030243706,-0.0662149,-0.029366618,-0.016915966,27.919779,-14.272897,-0.8739293,0.028884767,0.015141455,-0.066131555,2.9083993,-0.0044271164,5.8788695,0.10912323,0.6936654,0.47699755,0.2246078,0.13087425,inf,inf,inf,inf,1,1,1,1,8,21,8,28,4,0,1,1,1,0
